Year,Month,Day,Time,Flight_Time_(s),Sync,Gyro_X,Gyro_Y,Gyro_Z,Accel_X,Accel_Y,Accel_Z,Quat_1,Quat_2,Quat_3,Quat_4,Aux_Volts,Current
2025,6,11,12:07:51.112,-2.024,143,0.0,0.0,0.0,-0.99,0.03,0.00,1.00000,0.00003,0.00000,-0.00003,0.018,0.0000
2025,6,11,12:07:51.114,-2.022,145,0.0,0.0,0.0,-0.99,0.02,0.00,1.00000,0.00003,0.00000,-0.00003,0.018,0.0000
2025,6,11,12:07:51.116,-2.020,147,0.0,0.0,0.0,-0.99,0.02,0.00,1.00000,0.00003,0.00000,-0.00003,0.017,0.0000
2025,6,11,12:07:51.118,-2.018,149,0.0,0.0,0.1,-0.98,0.03,0.00,1.00000,0.00003,0.00000,-0.00003,0.018,0.0000
2025,6,11,12:07:51.120,-2.016,151,0.0,-0.1,0.2,-0.99,0.03,0.00,1.00000,0.00003,0.00000,-0.00003,0.018,0.0000
2025,6,11,12:07:51.122,-2.014,153,-0.1,0.0,0.0,-0.99,0.02,0.00,1.00000,0.00003,0.00000,-0.00003,0.018,0.0000
2025,6,11,12:07:51.124,-2.012,155,0.0,0.0,-0.1,-1.00,0.03,0.00,1.00000,0.00003,0.00000,-0.00003,0.017,0.0000
2025,6,11,12:07:51.126,-2.010,157,0.0,0.0,0.0,-0.99,0.03,0.00,1.00000,0.00003,0.00000,-0.00003,0.018,0.0000
2025,6,11,12:07:51.128,-2.008,159,0.0,0.0,0.0,-0.99,0.02,0.00,1.00000,0.00003,0.00000,-0.00003,0.017,0.0000
2025,6,11,12:07:51.130,-2.006,161,0.0,0.0,0.0,-1.00,0.03,0.00,1.00000,0.00003,0.00000,-0.00003,0.018,0.0000
2025,6,11,12:07:51.132,-2.004,163,0.0,0.1,0.0,-1.00,0.03,0.00,1.00000,0.00000,0.00000,-0.00003,0.018,0.0000
2025,6,11,12:07:51.134,-2.002,165,0.0,0.0,0.0,-1.00,0.02,0.00,1.00000,0.00003,0.00000,-0.00003,0.018,0.0000
2025,6,11,12:07:51.136,-2.000,167,0.0,0.0,-0.1,-0.99,0.02,0.00,1.00000,0.00003,0.00000,-0.00003,0.018,0.0000
2025,6,11,12:07:51.138,-1.998,169,0.0,0.0,0.0,-0.99,0.03,0.00,1.00000,0.00003,0.00000,-0.00003,0.018,0.0000
2025,6,11,12:07:51.140,-1.996,171,0.0,0.0,0.0,-0.99,0.03,0.00,1.00000,0.00003,0.00000,-0.00003,0.018,0.0000
2025,6,11,12:07:51.142,-1.994,173,0.0,0.0,0.0,-0.99,0.02,0.00,1.00000,0.00003,0.00000,-0.00003,0.018,0.0000
2025,6,11,12:07:51.144,-1.992,175,-0.1,0.0,0.0,-0.99,0.02,0.00,1.00000,0.00000,0.00000,-0.00003,0.018,0.0000
2025,6,11,12:07:51.146,-1.990,177,0.0,0.0,0.0,-0.99,0.03,0.00,1.00000,0.00000,0.00000,-0.00003,0.018,0.0000
2025,6,11,12:07:51.148,-1.988,179,0.0,0.0,0.1,-1.00,0.02,0.01,1.00000,0.00000,0.00000,-0.00003,0.018,0.0000
2025,6,11,12:07:51.150,-1.986,181,0.0,0.0,0.0,-0.99,0.03,0.00,1.00000,0.00000,0.00000,-0.00003,0.017,0.0000
2025,6,11,12:07:51.152,-1.984,183,0.0,0.0,-0.2,-1.00,0.03,0.00,1.00000,0.00000,0.00000,-0.00003,0.018,0.0000
2025,6,11,12:07:51.154,-1.982,185,-0.1,-0.1,0.1,-1.00,0.03,0.00,1.00000,0.00000,0.00000,-0.00003,0.018,0.0000
2025,6,11,12:07:51.156,-1.980,187,0.0,0.0,0.2,-0.99,0.02,0.00,1.00000,0.00000,0.00000,-0.00003,0.018,0.0000
2025,6,11,12:07:51.158,-1.978,189,0.0,0.0,0.0,-1.00,0.02,0.00,1.00000,0.00000,0.00000,-0.00003,0.017,0.0000
2025,6,11,12:07:51.160,-1.976,191,0.0,0.0,0.0,-0.99,0.03,0.00,1.00000,0.00000,0.00000,-0.00003,0.018,0.0000
2025,6,11,12:07:51.162,-1.974,193,0.0,0.0,0.1,-0.99,0.02,0.00,1.00000,0.00000,0.00000,-0.00003,0.018,0.0000
2025,6,11,12:07:51.164,-1.972,195,0.0,0.0,0.0,-1.00,0.02,0.00,1.00000,0.00000,0.00000,-0.00003,0.018,0.0000
2025,6,11,12:07:51.166,-1.970,197,0.0,0.0,0.0,-0.99,0.03,0.00,1.00000,0.00000,0.00000,-0.00003,0.018,0.0000
2025,6,11,12:07:51.168,-1.968,199,0.0,0.0,0.0,-0.99,0.01,0.00,1.00000,0.00000,0.00000,-0.00003,0.018,0.0000
2025,6,11,12:07:51.170,-1.966,201,0.0,0.0,0.2,-0.99,0.02,0.00,1.00000,0.00000,0.00000,0.00000,0.018,0.0000
2025,6,11,12:07:51.172,-1.964,203,0.0,0.0,0.1,-0.99,0.03,0.00,1.00000,0.00000,0.00000,0.00000,0.018,0.0000
2025,6,11,12:07:51.174,-1.962,205,0.0,0.0,0.0,-0.99,0.03,0.00,1.00000,0.00000,0.00000,0.00000,0.018,0.0000
2025,6,11,12:07:51.176,-1.960,207,0.0,0.0,0.0,-0.99,0.03,0.00,1.00000,0.00000,0.00000,0.00000,0.018,0.0000
2025,6,11,12:07:51.178,-1.958,209,0.0,0.0,0.0,-0.99,0.02,0.00,1.00000,0.00000,0.00000,0.00000,0.018,0.0000
2025,6,11,12:07:51.180,-1.956,211,0.0,0.0,0.0,-0.99,0.02,0.00,1.00000,0.00000,0.00000,0.00000,0.017,0.0000
2025,6,11,12:07:51.182,-1.954,213,0.0,0.1,0.0,-0.99,0.02,0.00,1.00000,0.00000,0.00000,0.00000,0.018,0.0000
2025,6,11,12:07:51.184,-1.952,215,0.0,0.0,0.0,-1.00,0.02,0.00,1.00000,0.00000,0.00000,0.00000,0.018,0.0000
2025,6,11,12:07:51.186,-1.950,217,0.0,0.0,0.0,-0.99,0.03,0.00,1.00000,0.00000,0.00000,0.00000,0.018,0.0000
2025,6,11,12:07:51.188,-1.948,219,0.0,0.0,0.0,-0.99,0.03,0.00,1.00000,0.00000,0.00000,0.00000,0.018,0.0000
2025,6,11,12:07:51.190,-1.946,221,0.0,0.0,0.0,-0.99,0.03,0.00,1.00000,0.00000,0.00000,0.00000,0.018,0.0000
2025,6,11,12:07:51.192,-1.944,223,0.0,0.0,0.1,-0.99,0.03,0.00,1.00000,0.00000,0.00000,0.00000,0.018,0.0000
2025,6,11,12:07:51.194,-1.942,225,0.0,0.0,0.0,-1.00,0.03,0.00,1.00000,0.00000,0.00000,0.00000,0.018,0.0000
2025,6,11,12:07:51.196,-1.940,227,0.0,0.0,0.0,-0.99,0.03,0.00,1.00000,0.00000,0.00000,0.00000,0.017,0.0000
2025,6,11,12:07:51.198,-1.938,229,0.0,0.0,0.0,-0.99,0.03,0.00,1.00000,0.00000,0.00000,0.00000,0.018,0.0000
2025,6,11,12:07:51.200,-1.936,231,0.0,0.0,0.1,-1.00,0.04,0.00,1.00000,0.00000,0.00000,0.00000,0.017,0.0000
2025,6,11,12:07:51.202,-1.934,233,0.0,0.0,0.0,-0.99,0.03,0.00,1.00000,0.00000,0.00000,0.00000,0.018,0.0000
2025,6,11,12:07:51.204,-1.932,235,0.0,0.0,0.0,-0.99,0.03,0.00,1.00000,0.00000,0.00000,0.00000,0.018,0.0000
2025,6,11,12:07:51.206,-1.930,237,0.0,0.0,0.0,-0.99,0.03,0.00,1.00000,0.00000,0.00000,0.00000,0.017,0.0000
2025,6,11,12:07:51.208,-1.928,239,0.0,0.0,0.0,-0.99,0.02,0.00,1.00000,0.00000,0.00000,0.00000,0.017,0.0000
2025,6,11,12:07:51.210,-1.926,241,0.0,0.0,0.0,-1.00,0.03,0.00,1.00000,0.00000,0.00000,0.00000,0.017,0.0000
2025,6,11,12:07:51.212,-1.924,243,0.0,0.0,0.1,-1.00,0.02,0.00,1.00000,0.00000,0.00000,0.00000,0.018,0.0000
2025,6,11,12:07:51.214,-1.922,245,0.0,0.0,0.1,-0.99,0.03,0.00,1.00000,0.00000,0.00000,0.00000,0.017,0.0000
2025,6,11,12:07:51.216,-1.920,247,0.0,0.0,-0.1,-0.99,0.03,0.00,1.00000,0.00000,0.00000,0.00000,0.017,0.0000
2025,6,11,12:07:51.218,-1.918,249,0.0,0.0,0.0,-1.00,0.03,0.00,1.00000,0.00000,0.00000,0.00000,0.018,0.0000
2025,6,11,12:07:51.220,-1.916,1,-0.2,0.0,0.0,-0.99,0.02,0.00,1.00000,0.00000,0.00000,0.00000,0.017,0.0000
2025,6,11,12:07:51.222,-1.914,3,-0.1,0.0,0.0,-0.99,0.03,0.00,1.00000,0.00000,0.00000,0.00000,0.018,0.0000
2025,6,11,12:07:51.224,-1.912,5,-0.1,0.0,0.0,-0.99,0.03,0.00,1.00000,0.00000,0.00000,0.00000,0.017,0.0000
2025,6,11,12:07:51.226,-1.910,7,0.0,0.0,0.0,-1.00,0.03,0.00,1.00000,0.00000,0.00000,0.00000,0.017,0.0000
2025,6,11,12:07:51.228,-1.908,9,0.0,0.0,0.0,-1.00,0.02,0.00,1.00000,0.00000,0.00000,0.00000,0.017,0.0000
2025,6,11,12:07:51.230,-1.906,11,0.0,0.0,0.0,-0.99,0.03,0.00,1.00000,0.00000,0.00000,0.00000,0.017,0.0000
2025,6,11,12:07:51.232,-1.904,13,0.0,0.0,-0.1,-0.99,0.02,0.00,1.00000,0.00000,0.00000,0.00000,0.017,0.0000
2025,6,11,12:07:51.234,-1.902,15,0.0,0.0,0.0,-0.99,0.03,0.00,1.00000,0.00000,0.00000,0.00000,0.017,0.0000
2025,6,11,12:07:51.236,-1.900,17,0.0,0.0,0.0,-0.98,0.03,0.00,1.00000,0.00000,0.00000,0.00000,0.017,0.0000
2025,6,11,12:07:51.238,-1.898,19,0.0,0.0,-0.2,-1.00,0.02,0.00,1.00000,0.00000,0.00000,0.00000,0.017,0.0000
2025,6,11,12:07:51.240,-1.896,21,0.0,0.0,-0.2,-1.00,0.02,0.00,1.00000,0.00000,0.00000,0.00000,0.017,0.0000
2025,6,11,12:07:51.242,-1.894,23,0.0,0.0,0.0,-1.00,0.03,0.00,1.00000,0.00000,0.00000,0.00000,0.017,0.0000
2025,6,11,12:07:51.244,-1.892,25,0.0,0.0,0.0,-1.00,0.01,0.00,1.00000,0.00000,0.00000,0.00000,0.017,0.0000
2025,6,11,12:07:51.246,-1.890,27,0.0,0.1,0.0,-0.99,0.03,0.00,1.00000,0.00000,0.00000,0.00000,0.017,0.0000
2025,6,11,12:07:51.248,-1.888,29,0.0,0.0,0.0,-0.99,0.03,0.00,1.00000,0.00000,0.00000,0.00000,0.018,0.0000
2025,6,11,12:07:51.250,-1.886,31,-0.1,0.0,0.0,-0.99,0.04,0.00,1.00000,0.00000,0.00000,0.00000,0.017,0.0000
2025,6,11,12:07:51.252,-1.884,33,0.0,0.0,0.0,-0.99,0.04,0.00,1.00000,0.00000,0.00000,0.00000,0.017,0.0000
2025,6,11,12:07:51.254,-1.882,35,0.0,0.0,0.0,-0.99,0.03,0.00,1.00000,0.00000,0.00000,0.00000,0.017,0.0000
2025,6,11,12:07:51.256,-1.880,37,0.0,0.0,0.0,-0.99,0.02,0.00,1.00000,0.00000,0.00000,0.00000,0.018,0.0000
2025,6,11,12:07:51.258,-1.878,39,0.0,0.0,0.0,-0.99,0.02,0.01,1.00000,0.00000,0.00000,0.00000,0.017,0.0000
2025,6,11,12:07:51.260,-1.876,41,0.0,0.0,0.0,-1.00,0.03,0.00,1.00000,-0.00003,0.00000,0.00000,0.017,0.0000
2025,6,11,12:07:51.262,-1.874,43,0.0,0.0,0.0,-0.99,0.03,0.00,1.00000,-0.00003,0.00000,0.00000,0.018,0.0000
2025,6,11,12:07:51.264,-1.872,45,0.0,0.0,0.0,-0.99,0.03,0.00,1.00000,-0.00003,0.00000,0.00000,0.017,0.0000
2025,6,11,12:07:51.266,-1.870,47,0.0,-0.1,0.0,-0.99,0.03,0.00,1.00000,-0.00003,0.00000,0.00000,0.018,0.0000
2025,6,11,12:07:51.268,-1.868,49,0.0,0.0,0.0,-0.99,0.03,0.00,1.00000,-0.00003,0.00000,0.00000,0.018,0.0000
2025,6,11,12:07:51.270,-1.866,51,0.0,0.0,0.0,-0.99,0.03,0.00,1.00000,-0.00003,0.00000,0.00000,0.018,0.0000
2025,6,11,12:07:51.272,-1.864,53,0.0,0.0,0.0,-1.00,0.03,0.00,1.00000,-0.00003,0.00000,0.00000,0.018,0.0000
2025,6,11,12:07:51.274,-1.862,55,0.0,0.1,0.0,-1.00,0.03,0.00,1.00000,-0.00003,0.00000,0.00000,0.018,0.0000
2025,6,11,12:07:51.276,-1.860,57,0.0,0.0,0.0,-1.00,0.03,0.00,1.00000,-0.00003,0.00000,0.00000,0.017,0.0000
2025,6,11,12:07:51.278,-1.858,59,0.0,0.0,0.0,-0.99,0.03,0.00,1.00000,-0.00003,0.00000,0.00000,0.017,0.0000
2025,6,11,12:07:51.280,-1.856,61,0.0,0.0,0.1,-0.99,0.03,0.00,1.00000,0.00000,0.00000,0.00000,0.016,0.0000
2025,6,11,12:07:51.282,-1.854,63,0.0,0.0,0.0,-1.00,0.02,0.00,1.00000,-0.00003,0.00000,0.00000,0.018,0.0000
2025,6,11,12:07:51.284,-1.852,65,0.0,0.0,0.0,-0.99,0.03,0.00,1.00000,-0.00003,0.00000,0.00000,0.017,0.0000
2025,6,11,12:07:51.286,-1.850,67,0.0,0.0,0.1,-0.99,0.03,0.00,1.00000,-0.00003,0.00000,0.00000,0.017,0.0000
2025,6,11,12:07:51.288,-1.848,69,0.0,0.0,0.0,-0.99,0.03,0.00,1.00000,-0.00003,0.00000,0.00000,0.017,0.0000
2025,6,11,12:07:51.290,-1.846,71,0.0,0.0,0.0,-1.00,0.03,0.00,1.00000,-0.00003,0.00000,0.00000,0.018,0.0000
2025,6,11,12:07:51.292,-1.844,73,0.0,0.0,0.0,-0.99,0.03,0.00,1.00000,-0.00003,0.00000,0.00000,0.018,0.0000
2025,6,11,12:07:51.294,-1.842,75,0.0,0.0,0.0,-1.00,0.03,0.00,1.00000,-0.00003,0.00000,0.00000,0.016,0.0000
2025,6,11,12:07:51.296,-1.840,77,0.0,0.0,0.0,-1.00,0.03,0.00,1.00000,-0.00003,0.00000,0.00000,0.017,0.0000
2025,6,11,12:07:51.298,-1.838,79,0.0,0.0,0.0,-1.00,0.03,0.00,1.00000,-0.00003,0.00000,0.00000,0.017,0.0000
2025,6,11,12:07:51.300,-1.836,81,0.0,0.0,0.0,-0.98,0.02,0.00,1.00000,-0.00003,0.00000,0.00000,0.018,0.0000
2025,6,11,12:07:51.302,-1.834,83,0.0,0.0,-0.1,-0.99,0.03,0.00,1.00000,-0.00003,0.00000,0.00000,0.017,0.0000
2025,6,11,12:07:51.304,-1.832,85,0.0,0.0,0.0,-1.00,0.03,0.00,1.00000,-0.00003,0.00000,0.00000,0.017,0.0000
2025,6,11,12:07:51.306,-1.830,87,0.0,0.0,0.0,-1.00,0.03,0.00,1.00000,-0.00003,0.00000,0.00000,0.017,0.0000
2025,6,11,12:07:51.308,-1.828,89,0.0,0.0,-0.1,-0.99,0.02,0.00,1.00000,-0.00003,0.00000,0.00000,0.018,0.0000
2025,6,11,12:07:51.310,-1.826,91,0.0,0.0,0.1,-0.99,0.02,0.00,1.00000,-0.00003,0.00000,0.00000,0.017,0.0000
2025,6,11,12:07:51.312,-1.824,93,0.0,0.0,0.0,-0.99,0.03,0.00,1.00000,-0.00003,0.00000,0.00000,0.017,0.0000
2025,6,11,12:07:51.314,-1.822,95,0.0,0.0,0.0,-0.99,0.03,0.00,1.00000,-0.00003,0.00000,0.00000,0.017,0.0000
2025,6,11,12:07:51.316,-1.820,97,0.0,0.0,0.0,-1.00,0.03,0.00,1.00000,-0.00003,0.00000,0.00000,0.017,0.0000
2025,6,11,12:07:51.318,-1.818,99,0.0,0.0,0.0,-0.99,0.03,0.00,1.00000,-0.00003,0.00000,0.00000,0.017,0.0000
2025,6,11,12:07:51.320,-1.816,101,0.0,0.0,0.0,-0.99,0.03,0.00,1.00000,-0.00003,0.00000,0.00000,0.017,0.0000
2025,6,11,12:07:51.322,-1.814,103,0.0,0.0,0.0,-0.99,0.03,0.00,1.00000,-0.00003,0.00000,0.00000,0.017,0.0000
2025,6,11,12:07:51.324,-1.812,105,0.0,0.0,0.0,-1.00,0.03,0.00,1.00000,-0.00003,0.00000,0.00000,0.017,0.0000
2025,6,11,12:07:51.326,-1.810,107,0.0,0.0,0.1,-1.00,0.03,0.00,1.00000,-0.00003,0.00000,0.00000,0.017,0.0000
2025,6,11,12:07:51.328,-1.808,109,0.0,0.0,0.0,-1.00,0.03,0.01,1.00000,-0.00003,0.00000,0.00000,0.018,0.0000
2025,6,11,12:07:51.330,-1.806,111,0.0,0.0,0.0,-0.99,0.03,0.00,1.00000,-0.00003,0.00000,0.00000,0.018,0.0000
2025,6,11,12:07:51.332,-1.804,113,0.0,0.0,0.0,-0.99,0.03,0.00,1.00000,-0.00003,0.00000,0.00000,0.017,0.0000
2025,6,11,12:07:51.334,-1.802,115,0.0,0.0,0.0,-0.99,0.03,0.00,1.00000,-0.00003,0.00000,0.00000,0.018,0.0000
2025,6,11,12:07:51.336,-1.800,117,0.0,0.0,0.0,-0.99,0.03,0.00,1.00000,-0.00003,0.00000,0.00000,0.018,0.0000
2025,6,11,12:07:51.338,-1.798,119,0.0,0.0,0.0,-0.99,0.03,0.00,1.00000,-0.00003,0.00000,0.00000,0.018,0.0000
2025,6,11,12:07:51.340,-1.796,121,0.0,0.0,0.0,-0.99,0.03,0.00,1.00000,-0.00003,0.00000,0.00000,0.018,0.0000
2025,6,11,12:07:51.342,-1.794,123,0.0,0.0,0.0,-1.00,0.02,0.00,1.00000,-0.00003,0.00000,0.00000,0.017,0.0000
2025,6,11,12:07:51.344,-1.792,125,0.0,0.0,0.0,-1.00,0.03,0.00,1.00000,-0.00003,0.00000,0.00000,0.018,0.0000
2025,6,11,12:07:51.346,-1.790,127,0.0,0.0,0.0,-0.98,0.03,0.00,1.00000,-0.00003,0.00000,0.00000,0.018,0.0000
2025,6,11,12:07:51.348,-1.788,129,0.0,0.0,0.0,-0.99,0.03,0.00,1.00000,-0.00003,0.00000,0.00000,0.018,0.0000
2025,6,11,12:07:51.350,-1.786,131,0.0,0.1,0.0,-0.99,0.03,0.00,1.00000,-0.00003,0.00000,0.00000,0.017,0.0000
2025,6,11,12:07:51.352,-1.784,133,0.0,0.0,0.0,-1.00,0.03,0.00,1.00000,-0.00003,0.00000,0.00000,0.018,0.0000
2025,6,11,12:07:51.354,-1.782,135,0.0,0.0,0.1,-0.99,0.03,0.00,1.00000,-0.00003,0.00000,0.00000,0.017,0.0000
2025,6,11,12:07:51.356,-1.780,137,0.0,0.0,0.0,-0.99,0.03,0.00,1.00000,-0.00003,0.00000,0.00000,0.018,0.0000
2025,6,11,12:07:51.358,-1.778,139,0.0,0.0,0.0,-0.99,0.02,0.00,1.00000,-0.00003,0.00000,0.00000,0.018,0.0000
2025,6,11,12:07:51.360,-1.776,141,0.0,0.0,-0.1,-1.00,0.03,0.00,1.00000,-0.00003,0.00000,0.00000,0.017,0.0000
2025,6,11,12:07:51.362,-1.774,143,0.0,0.0,0.0,-0.99,0.03,0.00,1.00000,-0.00003,0.00000,0.00000,0.017,0.0000
2025,6,11,12:07:51.364,-1.772,145,0.0,0.0,0.0,-0.99,0.03,0.00,1.00000,-0.00003,0.00000,0.00000,0.017,0.0000
2025,6,11,12:07:51.366,-1.770,147,0.0,0.0,0.0,-1.00,0.03,0.00,1.00000,-0.00003,0.00000,0.00000,0.017,0.0000
2025,6,11,12:07:51.368,-1.768,149,0.0,0.0,0.0,-0.99,0.03,0.01,1.00000,-0.00003,0.00000,0.00000,0.018,0.0000
2025,6,11,12:07:51.370,-1.766,151,0.0,0.0,0.0,-0.99,0.02,0.00,1.00000,-0.00003,0.00000,0.00000,0.018,0.0000
2025,6,11,12:07:51.372,-1.764,153,0.0,0.0,0.0,-0.99,0.02,0.00,1.00000,-0.00003,0.00000,0.00000,0.017,0.0000
2025,6,11,12:07:51.374,-1.762,155,0.0,0.0,0.0,-0.99,0.03,0.00,1.00000,-0.00003,0.00000,0.00000,0.017,0.0000
2025,6,11,12:07:51.376,-1.760,157,0.0,0.0,0.0,-1.00,0.03,0.00,1.00000,-0.00003,0.00000,0.00000,0.017,0.0000
2025,6,11,12:07:51.378,-1.758,159,0.0,0.0,0.0,-1.00,0.03,0.00,1.00000,-0.00003,0.00000,0.00000,0.017,0.0000
2025,6,11,12:07:51.380,-1.756,161,0.0,0.0,0.0,-1.00,0.02,0.00,1.00000,-0.00003,0.00000,0.00000,0.017,0.0000
2025,6,11,12:07:51.382,-1.754,163,0.0,0.0,-0.1,-0.99,0.03,0.00,1.00000,-0.00003,0.00000,0.00000,0.018,0.0000
2025,6,11,12:07:51.384,-1.752,165,0.0,0.0,0.0,-0.99,0.03,0.00,1.00000,-0.00003,0.00000,0.00000,0.018,0.0000
2025,6,11,12:07:51.386,-1.750,167,0.0,0.0,-0.1,-0.99,0.03,0.00,1.00000,-0.00003,0.00000,0.00000,0.018,0.0000
2025,6,11,12:07:51.388,-1.748,169,0.1,0.0,0.0,-0.99,0.03,0.00,1.00000,-0.00003,0.00000,0.00000,0.018,0.0000
2025,6,11,12:07:51.390,-1.746,171,0.0,0.0,0.0,-0.99,0.02,0.00,1.00000,-0.00003,0.00000,0.00000,0.017,0.0000
2025,6,11,12:07:51.392,-1.744,173,0.0,0.0,0.0,-1.00,0.02,0.00,1.00000,-0.00003,0.00000,0.00000,0.017,0.0000
2025,6,11,12:07:51.394,-1.742,175,0.0,0.0,0.0,-0.99,0.03,0.00,1.00000,-0.00003,0.00000,0.00000,0.017,0.0000
2025,6,11,12:07:51.396,-1.740,177,0.1,0.0,-0.1,-0.99,0.02,0.00,1.00000,0.00000,0.00000,0.00000,0.018,0.0000
2025,6,11,12:07:51.398,-1.738,179,0.0,0.0,0.0,-1.00,0.03,0.00,1.00000,0.00000,0.00000,0.00000,0.018,0.0000
2025,6,11,12:07:51.400,-1.736,181,0.0,0.0,0.0,-1.00,0.03,0.00,1.00000,0.00000,0.00000,0.00000,0.018,0.0000
2025,6,11,12:07:51.402,-1.734,183,0.0,0.0,0.0,-1.00,0.03,0.00,1.00000,0.00000,0.00000,0.00000,0.017,0.0000
2025,6,11,12:07:51.404,-1.732,185,0.0,0.1,0.0,-0.99,0.01,0.00,1.00000,0.00000,0.00000,0.00000,0.017,0.0000
2025,6,11,12:07:51.406,-1.730,187,0.0,0.0,0.0,-0.99,0.03,0.00,1.00000,0.00000,0.00000,0.00000,0.017,0.0000
2025,6,11,12:07:51.408,-1.728,189,0.0,0.0,0.0,-1.00,0.02,0.00,1.00000,0.00000,0.00000,0.00000,0.017,0.0000
2025,6,11,12:07:51.410,-1.726,191,0.0,0.0,0.0,-1.00,0.04,0.00,1.00000,0.00000,0.00000,0.00000,0.017,0.0000
2025,6,11,12:07:51.412,-1.724,193,0.0,0.1,0.0,-0.99,0.03,0.00,1.00000,0.00000,0.00000,0.00000,0.017,0.0000
2025,6,11,12:07:51.414,-1.722,195,0.0,0.0,0.0,-1.00,0.03,0.00,1.00000,0.00000,0.00000,0.00000,0.018,0.0000
2025,6,11,12:07:51.416,-1.720,197,0.0,0.0,0.0,-0.99,0.03,0.00,1.00000,0.00000,0.00000,0.00000,0.017,0.0000
2025,6,11,12:07:51.418,-1.718,199,0.0,0.0,-0.1,-1.00,0.03,0.00,1.00000,0.00000,0.00000,0.00000,0.017,0.0000
2025,6,11,12:07:51.420,-1.716,201,0.1,-0.1,0.0,-1.00,0.03,0.00,1.00000,0.00000,0.00000,0.00000,0.017,0.0000
2025,6,11,12:07:51.422,-1.714,203,0.0,0.0,0.0,-0.99,0.03,0.00,1.00000,0.00000,0.00000,0.00000,0.017,0.0000
2025,6,11,12:07:51.424,-1.712,205,0.0,0.0,0.0,-1.00,0.02,0.00,1.00000,0.00000,0.00000,0.00000,0.018,0.0000
2025,6,11,12:07:51.426,-1.710,207,0.0,0.0,0.0,-0.99,0.02,0.00,1.00000,0.00000,0.00000,0.00000,0.017,0.0000
2025,6,11,12:07:51.428,-1.708,209,0.0,0.0,0.0,-0.99,0.02,0.00,1.00000,0.00000,0.00000,0.00000,0.018,0.0000
2025,6,11,12:07:51.430,-1.706,211,0.0,0.0,0.0,-1.00,0.03,0.00,1.00000,0.00000,0.00000,0.00000,0.017,0.0000
2025,6,11,12:07:51.432,-1.704,213,0.0,0.0,0.0,-0.99,0.03,0.00,1.00000,0.00000,0.00000,0.00000,0.017,0.0000
2025,6,11,12:07:51.434,-1.702,215,0.0,0.0,0.0,-0.99,0.03,0.00,1.00000,0.00000,0.00000,0.00000,0.018,0.0000
2025,6,11,12:07:51.436,-1.700,217,0.0,0.0,0.0,-0.99,0.03,0.00,1.00000,0.00000,0.00000,0.00000,0.017,0.0000
2025,6,11,12:07:51.438,-1.698,219,0.0,0.1,0.0,-1.00,0.03,0.00,1.00000,0.00000,0.00000,0.00000,0.017,0.0000
2025,6,11,12:07:51.440,-1.696,221,0.1,0.0,0.0,-0.99,0.02,0.00,1.00000,0.00000,0.00000,0.00000,0.017,0.0000
2025,6,11,12:07:51.442,-1.694,223,0.0,0.1,0.0,-1.00,0.02,0.00,1.00000,0.00000,0.00000,0.00000,0.017,0.0000
2025,6,11,12:07:51.444,-1.692,225,0.0,0.0,-0.2,-0.99,0.02,0.00,1.00000,0.00000,0.00000,0.00000,0.018,0.0000
2025,6,11,12:07:51.446,-1.690,227,0.1,0.0,0.0,-1.00,0.02,0.00,1.00000,0.00000,0.00000,0.00000,0.017,0.0000
2025,6,11,12:07:51.448,-1.688,229,0.0,0.0,0.0,-0.99,0.03,0.00,1.00000,0.00000,0.00000,0.00000,0.017,0.0000
2025,6,11,12:07:51.450,-1.686,231,0.0,0.0,0.1,-0.99,0.03,0.00,1.00000,0.00000,0.00000,0.00000,0.018,0.0000
2025,6,11,12:07:51.452,-1.684,233,0.1,0.0,0.1,-0.99,0.02,0.00,1.00000,0.00000,0.00000,0.00000,0.017,0.0000
2025,6,11,12:07:51.454,-1.682,235,0.0,0.0,0.0,-0.99,0.02,0.00,1.00000,0.00000,0.00000,0.00000,0.017,0.0000
2025,6,11,12:07:51.456,-1.680,237,0.0,0.0,0.1,-1.00,0.02,0.00,1.00000,0.00000,0.00000,0.00000,0.017,0.0000
2025,6,11,12:07:51.458,-1.678,239,0.0,0.0,0.1,-0.99,0.03,0.00,1.00000,0.00000,0.00000,0.00000,0.017,0.0000
2025,6,11,12:07:51.460,-1.676,241,0.0,0.0,0.0,-1.00,0.03,0.00,1.00000,0.00000,0.00000,0.00000,0.017,0.0000
2025,6,11,12:07:51.462,-1.674,243,0.0,0.0,-0.1,-0.99,0.02,0.01,1.00000,0.00000,0.00000,0.00000,0.017,0.0000
2025,6,11,12:07:51.464,-1.672,245,0.0,0.0,0.0,-0.99,0.02,0.00,1.00000,0.00000,0.00000,0.00000,0.017,0.0000
2025,6,11,12:07:51.466,-1.670,247,0.0,0.0,0.0,-0.99,0.03,0.00,1.00000,0.00000,0.00000,0.00000,0.018,0.0000
2025,6,11,12:07:51.468,-1.668,249,0.0,0.0,0.1,-0.99,0.03,0.00,1.00000,0.00000,0.00000,0.00000,0.018,0.0000
2025,6,11,12:07:51.470,-1.666,1,0.0,0.0,0.0,-0.99,0.02,0.00,1.00000,0.00000,0.00000,0.00000,0.018,0.0000
2025,6,11,12:07:51.472,-1.664,3,0.0,0.0,0.0,-0.99,0.02,0.00,1.00000,0.00000,0.00000,0.00000,0.017,0.0000
2025,6,11,12:07:51.474,-1.662,5,0.0,0.0,0.0,-0.99,0.02,0.00,1.00000,0.00000,0.00000,0.00000,0.017,0.0000
2025,6,11,12:07:51.476,-1.660,7,0.1,0.0,0.0,-0.99,0.02,0.00,1.00000,0.00000,0.00000,0.00000,0.017,0.0000
2025,6,11,12:07:51.478,-1.658,9,0.1,0.0,0.0,-0.99,0.03,0.00,1.00000,0.00000,0.00000,0.00000,0.017,0.0000
2025,6,11,12:07:51.480,-1.656,11,0.0,0.0,0.0,-1.00,0.03,0.00,1.00000,0.00000,0.00000,0.00000,0.018,0.0000
2025,6,11,12:07:51.482,-1.654,13,0.0,0.0,0.0,-0.99,0.03,0.00,1.00000,0.00000,0.00000,0.00000,0.017,0.0000
2025,6,11,12:07:51.484,-1.652,15,0.0,0.0,0.0,-0.99,0.03,0.00,1.00000,0.00000,0.00000,0.00000,0.017,0.0000
2025,6,11,12:07:51.486,-1.650,17,0.0,0.0,0.0,-0.99,0.02,0.00,1.00000,0.00000,0.00000,0.00000,0.017,0.0000
2025,6,11,12:07:51.488,-1.648,19,0.0,0.0,0.0,-1.00,0.03,0.00,1.00000,0.00000,0.00000,0.00000,0.017,0.0000
2025,6,11,12:07:51.490,-1.646,21,0.0,0.0,0.0,-1.00,0.02,0.00,1.00000,0.00000,0.00000,0.00000,0.017,0.0000
2025,6,11,12:07:51.492,-1.644,23,0.1,0.0,0.0,-0.99,0.03,0.00,1.00000,0.00000,0.00000,0.00000,0.017,0.0000
2025,6,11,12:07:51.494,-1.642,25,0.0,0.0,0.0,-0.99,0.03,0.00,1.00000,0.00000,0.00000,0.00000,0.017,0.0000
2025,6,11,12:07:51.496,-1.640,27,0.0,0.0,0.0,-0.99,0.02,0.00,1.00000,0.00000,0.00000,0.00000,0.018,0.0000
2025,6,11,12:07:51.498,-1.638,29,0.1,0.0,0.0,-0.99,0.03,0.00,1.00000,0.00000,0.00000,0.00000,0.017,0.0000
2025,6,11,12:07:51.500,-1.636,31,0.1,0.0,0.0,-0.99,0.02,0.00,1.00000,0.00000,0.00000,0.00000,0.017,0.0000
2025,6,11,12:07:51.502,-1.634,33,0.0,0.0,0.0,-1.00,0.03,0.00,1.00000,0.00000,0.00000,0.00000,0.017,0.0000
2025,6,11,12:07:51.504,-1.632,35,0.0,0.1,0.0,-0.99,0.03,0.01,1.00000,0.00000,0.00000,0.00000,0.018,0.0000
2025,6,11,12:07:51.506,-1.630,37,0.0,0.0,0.0,-1.00,0.02,0.00,1.00000,0.00000,0.00000,0.00000,0.017,0.0000
2025,6,11,12:07:51.508,-1.628,39,0.0,0.0,0.0,-0.99,0.02,0.00,1.00000,0.00000,0.00000,0.00000,0.018,0.0000
2025,6,11,12:07:51.510,-1.626,41,0.0,0.0,0.0,-0.99,0.02,0.00,1.00000,0.00000,0.00000,0.00000,0.018,0.0000
2025,6,11,12:07:51.512,-1.624,43,0.0,0.0,0.0,-0.99,0.03,0.00,1.00000,0.00000,0.00000,0.00000,0.017,0.0000
2025,6,11,12:07:51.514,-1.622,45,0.0,0.1,0.0,-1.00,0.02,0.00,1.00000,0.00000,0.00000,0.00000,0.017,0.0000
2025,6,11,12:07:51.516,-1.620,47,0.0,0.0,0.0,-1.00,0.02,0.00,1.00000,0.00000,0.00000,0.00000,0.018,0.0000
2025,6,11,12:07:51.518,-1.618,49,0.0,0.0,0.1,-1.00,0.02,0.00,1.00000,0.00000,0.00000,0.00000,0.018,0.0000
2025,6,11,12:07:51.520,-1.616,51,0.0,0.0,0.0,-0.99,0.03,0.00,1.00000,0.00000,0.00000,0.00000,0.017,0.0000
2025,6,11,12:07:51.522,-1.614,53,0.0,0.0,-0.1,-0.99,0.03,0.00,1.00000,0.00000,0.00000,0.00000,0.017,0.0000
2025,6,11,12:07:51.524,-1.612,55,0.0,0.0,-0.1,-0.99,0.01,0.00,1.00000,0.00000,0.00000,0.00000,0.017,0.0000
2025,6,11,12:07:51.526,-1.610,57,0.0,0.0,0.0,-0.99,0.02,0.00,1.00000,0.00000,0.00000,0.00000,0.017,0.0000
2025,6,11,12:07:51.528,-1.608,59,0.0,0.1,0.0,-1.00,0.03,0.00,1.00000,0.00000,0.00000,0.00000,0.018,0.0000
2025,6,11,12:07:51.530,-1.606,61,0.0,0.0,0.0,-1.00,0.02,0.00,1.00000,0.00000,0.00000,0.00000,0.018,0.0000
2025,6,11,12:07:51.532,-1.604,63,0.0,-0.1,0.0,-0.99,0.02,0.00,1.00000,0.00000,0.00000,0.00000,0.018,0.0000
2025,6,11,12:07:51.534,-1.602,65,0.0,0.0,0.0,-1.00,0.03,0.00,1.00000,0.00000,0.00000,0.00000,0.018,0.0000
2025,6,11,12:07:51.536,-1.600,67,0.0,0.0,0.0,-0.99,0.03,0.00,1.00000,0.00000,0.00000,0.00000,0.017,0.0000
2025,6,11,12:07:51.538,-1.598,69,0.0,0.0,0.0,-0.99,0.03,0.00,1.00000,0.00000,0.00000,0.00000,0.017,0.0000
2025,6,11,12:07:51.540,-1.596,71,0.0,0.0,-0.1,-0.99,0.03,0.00,1.00000,0.00000,0.00000,0.00000,0.018,0.0000
2025,6,11,12:07:51.542,-1.594,73,0.0,0.0,0.0,-0.99,0.04,0.00,1.00000,0.00000,0.00000,0.00000,0.018,0.0000
2025,6,11,12:07:51.544,-1.592,75,0.0,0.0,0.0,-0.99,0.03,0.00,1.00000,0.00000,0.00000,0.00000,0.018,0.0000
2025,6,11,12:07:51.546,-1.590,77,0.0,0.0,0.0,-0.99,0.03,0.00,1.00000,0.00000,0.00000,0.00000,0.018,0.0000
2025,6,11,12:07:51.548,-1.588,79,0.0,0.0,0.0,-0.99,0.03,0.00,1.00000,0.00000,0.00000,0.00000,0.018,0.0000
2025,6,11,12:07:51.550,-1.586,81,0.0,0.0,0.0,-0.99,0.02,0.00,1.00000,0.00000,0.00000,0.00000,0.017,0.0000
2025,6,11,12:07:51.552,-1.584,83,0.0,0.0,0.0,-1.00,0.03,0.00,1.00000,0.00000,0.00000,0.00000,0.018,0.0000
2025,6,11,12:07:51.554,-1.582,85,0.0,0.0,0.0,-0.99,0.02,0.00,1.00000,0.00000,0.00000,0.00000,0.017,0.0000
2025,6,11,12:07:51.556,-1.580,87,0.0,0.0,0.0,-0.99,0.03,0.00,1.00000,0.00000,0.00000,0.00000,0.018,0.0000
2025,6,11,12:07:51.558,-1.578,89,0.0,0.0,-0.1,-1.00,0.03,0.00,1.00000,0.00000,0.00000,0.00000,0.018,0.0000
2025,6,11,12:07:51.560,-1.576,91,0.0,0.0,0.0,-1.00,0.02,0.00,1.00000,0.00000,0.00000,0.00000,0.017,0.0000
2025,6,11,12:07:51.562,-1.574,93,0.0,0.0,0.0,-0.99,0.01,0.00,1.00000,0.00000,0.00000,0.00000,0.018,0.0000
2025,6,11,12:07:51.564,-1.572,95,0.1,0.0,0.0,-1.00,0.03,0.00,1.00000,0.00000,0.00000,0.00000,0.018,0.0000
2025,6,11,12:07:51.566,-1.570,97,0.0,0.0,0.0,-1.00,0.03,0.00,1.00000,0.00000,0.00000,0.00000,0.017,0.0000
2025,6,11,12:07:51.568,-1.568,99,0.0,0.0,0.0,-1.00,0.02,0.00,1.00000,0.00000,0.00000,0.00000,0.017,0.0000
2025,6,11,12:07:51.570,-1.566,101,0.0,0.0,0.0,-1.00,0.03,0.00,1.00000,0.00000,0.00000,0.00000,0.017,0.0000
2025,6,11,12:07:51.572,-1.564,103,0.0,0.0,0.0,-1.00,0.03,0.00,1.00000,0.00000,0.00000,0.00000,0.017,0.0000
2025,6,11,12:07:51.574,-1.562,105,0.0,0.0,-0.1,-1.00,0.02,0.00,1.00000,0.00000,0.00000,0.00000,0.018,0.0000
2025,6,11,12:07:51.576,-1.560,107,0.0,0.0,-0.1,-0.99,0.03,0.00,1.00000,0.00000,0.00000,0.00000,0.017,0.0000
2025,6,11,12:07:51.578,-1.558,109,0.0,0.0,-0.1,-0.99,0.02,0.00,1.00000,0.00000,0.00000,0.00000,0.017,0.0000
2025,6,11,12:07:51.580,-1.556,111,0.0,0.1,0.0,-1.00,0.03,0.00,1.00000,0.00000,0.00000,0.00000,0.017,0.0000
2025,6,11,12:07:51.582,-1.554,113,0.0,0.0,0.0,-0.99,0.02,0.00,1.00000,0.00000,0.00000,0.00000,0.017,0.0000
2025,6,11,12:07:51.584,-1.552,115,0.0,0.0,0.0,-1.00,0.03,0.00,1.00000,0.00000,0.00000,0.00000,0.017,0.0000
2025,6,11,12:07:51.586,-1.550,117,0.0,0.0,0.1,-1.00,0.03,0.00,1.00000,0.00000,0.00000,0.00000,0.017,0.0000
2025,6,11,12:07:51.588,-1.548,119,0.1,0.0,0.0,-0.99,0.02,0.00,1.00000,0.00000,0.00000,0.00000,0.017,0.0000
2025,6,11,12:07:51.590,-1.546,121,0.0,0.0,0.0,-0.99,0.02,0.00,1.00000,0.00000,0.00000,0.00000,0.017,0.0000
2025,6,11,12:07:51.592,-1.544,123,0.0,0.0,0.0,-0.99,0.03,0.00,1.00000,0.00000,0.00000,0.00000,0.018,0.0000
2025,6,11,12:07:51.594,-1.542,125,0.0,0.0,0.0,-1.00,0.02,0.00,1.00000,0.00000,0.00000,0.00000,0.017,0.0000
2025,6,11,12:07:51.596,-1.540,127,0.0,0.0,0.0,-1.00,0.02,0.00,1.00000,0.00000,0.00000,0.00000,0.017,0.0000
2025,6,11,12:07:51.598,-1.538,129,0.0,0.1,-0.1,-0.99,0.02,0.00,1.00000,0.00000,0.00000,0.00000,0.018,0.0000
2025,6,11,12:07:51.600,-1.536,131,0.0,0.0,0.0,-1.00,0.03,0.00,1.00000,0.00000,0.00000,0.00000,0.018,0.0000
2025,6,11,12:07:51.602,-1.534,133,0.0,0.0,0.0,-1.00,0.03,0.00,1.00000,0.00000,0.00000,0.00000,0.017,0.0000
2025,6,11,12:07:51.604,-1.532,135,0.0,0.0,0.0,-0.99,0.03,0.00,1.00000,0.00000,0.00000,0.00000,0.017,0.0000
2025,6,11,12:07:51.606,-1.530,137,0.0,0.0,-0.1,-0.99,0.03,0.00,1.00000,0.00000,0.00000,0.00000,0.017,0.0000
2025,6,11,12:07:51.608,-1.528,139,0.0,0.0,0.0,-0.99,0.03,0.00,1.00000,0.00000,0.00000,0.00000,0.017,0.0000
2025,6,11,12:07:51.610,-1.526,141,0.0,0.0,0.0,-0.99,0.02,0.01,1.00000,0.00000,0.00000,0.00000,0.018,0.0000
2025,6,11,12:07:51.612,-1.524,143,0.0,0.0,-0.1,-1.00,0.03,0.00,1.00000,0.00000,0.00000,0.00000,0.017,0.0000
2025,6,11,12:07:51.614,-1.522,145,0.0,0.0,0.1,-0.99,0.03,0.00,1.00000,0.00000,0.00000,0.00000,0.017,0.0000
2025,6,11,12:07:51.616,-1.520,147,0.0,0.0,0.0,-0.98,0.03,0.00,1.00000,0.00000,0.00000,0.00000,0.017,0.0000
2025,6,11,12:07:51.618,-1.518,149,0.0,0.0,0.0,-1.00,0.03,0.00,1.00000,0.00000,0.00000,0.00000,0.017,0.0000
2025,6,11,12:07:51.620,-1.516,151,0.0,0.0,-0.1,-1.00,0.03,0.00,1.00000,0.00000,0.00000,0.00000,0.018,0.0000
2025,6,11,12:07:51.622,-1.514,153,0.0,0.0,0.0,-0.99,0.02,0.00,1.00000,0.00000,0.00000,0.00000,0.017,0.0000
2025,6,11,12:07:51.624,-1.512,155,0.0,0.1,0.0,-0.99,0.03,0.00,1.00000,0.00000,0.00000,0.00000,0.017,0.0000
2025,6,11,12:07:51.626,-1.510,157,0.0,0.0,-0.1,-0.99,0.03,0.00,1.00000,0.00000,0.00000,0.00000,0.018,0.0000
2025,6,11,12:07:51.628,-1.508,159,0.0,0.0,0.0,-0.99,0.02,0.00,1.00000,0.00000,0.00000,0.00000,0.017,0.0000
2025,6,11,12:07:51.630,-1.506,161,0.0,0.0,0.2,-0.99,0.03,0.00,1.00000,0.00003,0.00000,0.00000,0.017,0.0000
2025,6,11,12:07:51.632,-1.504,163,0.0,0.0,0.0,-0.99,0.03,0.00,1.00000,0.00003,0.00000,0.00000,0.017,0.0000
2025,6,11,12:07:51.634,-1.502,165,0.0,0.0,0.0,-1.00,0.03,0.00,1.00000,0.00003,0.00000,0.00000,0.017,0.0000
2025,6,11,12:07:51.636,-1.500,167,0.1,0.0,-0.1,-0.99,0.03,0.00,1.00000,0.00003,0.00000,0.00000,0.017,0.0000
2025,6,11,12:07:51.638,-1.498,169,0.1,0.0,0.0,-0.99,0.03,0.00,1.00000,0.00003,0.00000,0.00000,0.017,0.0000
2025,6,11,12:07:51.640,-1.496,171,0.0,0.0,0.0,-0.99,0.03,0.00,1.00000,0.00003,0.00000,0.00000,0.017,0.0000
2025,6,11,12:07:51.642,-1.494,173,0.1,0.0,0.0,-0.99,0.02,0.00,1.00000,0.00003,0.00000,0.00000,0.017,0.0000
2025,6,11,12:07:51.644,-1.492,175,0.1,0.0,0.0,-1.00,0.03,0.00,1.00000,0.00003,0.00000,0.00000,0.017,0.0000
2025,6,11,12:07:51.646,-1.490,177,0.1,0.0,0.0,-1.00,0.03,0.00,1.00000,0.00003,0.00000,0.00000,0.017,0.0000
2025,6,11,12:07:51.648,-1.488,179,0.0,0.0,0.0,-1.00,0.02,0.00,1.00000,0.00003,0.00000,0.00000,0.017,0.0000
2025,6,11,12:07:51.650,-1.486,181,0.0,0.0,0.0,-0.99,0.03,0.00,1.00000,0.00003,0.00000,0.00000,0.018,0.0000
2025,6,11,12:07:51.652,-1.484,183,0.0,0.0,0.0,-1.00,0.03,0.00,1.00000,0.00003,0.00000,0.00000,0.018,0.0000
2025,6,11,12:07:51.654,-1.482,185,0.0,0.0,0.0,-0.99,0.02,0.00,1.00000,0.00003,0.00000,0.00000,0.017,0.0000
2025,6,11,12:07:51.656,-1.480,187,0.0,0.0,0.0,-0.99,0.03,0.00,1.00000,0.00003,0.00000,0.00000,0.017,0.0000
2025,6,11,12:07:51.658,-1.478,189,0.0,0.0,0.0,-1.00,0.03,0.01,1.00000,0.00003,0.00000,0.00000,0.017,0.0000
2025,6,11,12:07:51.660,-1.476,191,0.1,0.0,-0.1,-0.99,0.04,0.00,1.00000,0.00003,0.00000,0.00000,0.017,0.0000
2025,6,11,12:07:51.662,-1.474,193,0.0,0.1,0.0,-0.99,0.03,0.00,1.00000,0.00003,0.00000,0.00000,0.017,0.0000
2025,6,11,12:07:51.664,-1.472,195,0.0,0.0,-0.1,-0.99,0.03,0.00,1.00000,0.00003,0.00000,0.00000,0.017,0.0000
2025,6,11,12:07:51.666,-1.470,197,0.0,0.0,0.1,-0.99,0.03,0.00,1.00000,0.00003,0.00000,0.00000,0.018,0.0000
2025,6,11,12:07:51.668,-1.468,199,0.0,0.0,0.0,-0.99,0.03,0.00,1.00000,0.00003,0.00000,0.00000,0.017,0.0000
2025,6,11,12:07:51.670,-1.466,201,0.0,0.0,0.0,-0.99,0.03,0.00,1.00000,0.00003,0.00000,0.00000,0.017,0.0000
2025,6,11,12:07:51.672,-1.464,203,0.0,0.0,0.0,-0.99,0.02,0.00,1.00000,0.00003,0.00000,0.00000,0.018,0.0000
2025,6,11,12:07:51.674,-1.462,205,0.0,0.0,0.1,-0.99,0.03,0.00,1.00000,0.00003,0.00000,0.00000,0.018,0.0000
2025,6,11,12:07:51.676,-1.460,207,0.0,0.0,0.0,-1.00,0.03,0.00,1.00000,0.00003,0.00000,0.00000,0.017,0.0000
2025,6,11,12:07:51.678,-1.458,209,0.0,0.0,-0.1,-0.99,0.03,0.00,1.00000,0.00003,0.00000,0.00000,0.018,0.0000
2025,6,11,12:07:51.680,-1.456,211,0.0,0.0,0.0,-0.99,0.04,0.01,1.00000,0.00003,0.00000,0.00000,0.016,0.0000
2025,6,11,12:07:51.682,-1.454,213,0.0,0.0,0.0,-0.99,0.03,0.00,1.00000,0.00000,0.00000,0.00000,0.018,0.0000
2025,6,11,12:07:51.684,-1.452,215,0.0,0.0,0.0,-0.99,0.02,0.00,1.00000,0.00000,0.00000,0.00000,0.017,0.0000
2025,6,11,12:07:51.686,-1.450,217,0.0,0.0,0.0,-0.99,0.03,0.00,1.00000,0.00000,0.00000,0.00000,0.017,0.0000
2025,6,11,12:07:51.688,-1.448,219,0.0,0.0,0.0,-0.99,0.03,0.00,1.00000,0.00000,0.00000,0.00000,0.018,0.0000
2025,6,11,12:07:51.690,-1.446,221,0.0,0.0,0.0,-0.99,0.02,0.00,1.00000,0.00000,0.00000,0.00000,0.017,0.0000
2025,6,11,12:07:51.692,-1.444,223,0.0,0.0,0.0,-0.99,0.03,0.00,1.00000,0.00000,0.00000,0.00000,0.017,0.0000
2025,6,11,12:07:51.694,-1.442,225,0.0,0.0,0.1,-0.99,0.02,0.00,1.00000,0.00000,0.00000,0.00000,0.017,0.0000
2025,6,11,12:07:51.696,-1.440,227,0.0,0.0,0.1,-1.00,0.03,0.00,1.00000,0.00000,0.00000,0.00000,0.017,0.0000
2025,6,11,12:07:51.698,-1.438,229,0.0,0.0,0.0,-0.99,0.03,0.00,1.00000,0.00000,0.00000,0.00000,0.018,0.0000
2025,6,11,12:07:51.700,-1.436,231,0.0,0.1,0.0,-0.99,0.03,0.00,1.00000,0.00000,0.00000,0.00000,0.017,0.0000
2025,6,11,12:07:51.702,-1.434,233,0.0,0.0,-0.1,-1.00,0.02,0.00,1.00000,0.00000,0.00000,0.00000,0.018,0.0000
2025,6,11,12:07:51.704,-1.432,235,0.0,0.0,0.0,-0.99,0.03,0.00,1.00000,0.00000,0.00000,0.00000,0.017,0.0000
2025,6,11,12:07:51.706,-1.430,237,0.0,0.0,0.0,-0.99,0.02,0.00,1.00000,0.00000,0.00000,0.00000,0.017,0.0000
2025,6,11,12:07:51.708,-1.428,239,0.0,0.0,0.0,-0.99,0.02,0.00,1.00000,0.00000,0.00000,0.00000,0.018,0.0000
2025,6,11,12:07:51.710,-1.426,241,0.0,0.0,0.0,-0.99,0.02,0.01,1.00000,0.00000,0.00000,0.00000,0.017,0.0000
2025,6,11,12:07:51.712,-1.424,243,0.0,0.0,0.0,-0.99,0.02,0.00,1.00000,0.00000,0.00000,0.00000,0.017,0.0000
2025,6,11,12:07:51.714,-1.422,245,0.0,0.0,0.0,-0.98,0.03,0.00,1.00000,0.00000,0.00000,0.00000,0.017,0.0000
2025,6,11,12:07:51.716,-1.420,247,0.0,0.0,-0.1,-0.99,0.03,0.00,1.00000,0.00000,0.00000,0.00000,0.018,0.0000
2025,6,11,12:07:51.718,-1.418,249,0.0,0.0,0.0,-1.00,0.03,0.00,1.00000,0.00000,0.00000,0.00000,0.017,0.0000
2025,6,11,12:07:51.720,-1.416,1,0.0,0.0,0.0,-1.00,0.03,0.00,1.00000,0.00000,0.00000,0.00000,0.017,0.0000
2025,6,11,12:07:51.722,-1.414,3,-0.1,0.0,0.0,-0.99,0.03,0.00,1.00000,0.00000,0.00000,0.00000,0.017,0.0000
2025,6,11,12:07:51.724,-1.412,5,0.0,0.0,0.0,-0.99,0.03,0.00,1.00000,0.00000,0.00000,0.00000,0.018,0.0000
2025,6,11,12:07:51.726,-1.410,7,0.0,0.0,0.0,-1.00,0.03,0.00,1.00000,0.00000,0.00000,0.00000,0.016,0.0000
2025,6,11,12:07:51.728,-1.408,9,0.0,0.0,0.0,-0.99,0.02,0.00,1.00000,0.00000,0.00000,0.00000,0.017,0.0000
2025,6,11,12:07:51.730,-1.406,11,0.0,0.0,0.0,-1.00,0.03,0.00,1.00000,0.00000,0.00000,0.00000,0.017,0.0000
2025,6,11,12:07:51.732,-1.404,13,0.0,0.0,0.0,-0.99,0.02,0.00,1.00000,0.00000,0.00000,0.00000,0.018,0.0000
2025,6,11,12:07:51.734,-1.402,15,0.0,0.0,0.0,-1.00,0.03,0.00,1.00000,0.00000,0.00000,0.00000,0.017,0.0000
2025,6,11,12:07:51.736,-1.400,17,0.0,0.0,0.0,-0.99,0.03,0.00,1.00000,0.00000,0.00000,0.00000,0.017,0.0000
2025,6,11,12:07:51.738,-1.398,19,0.0,0.0,0.0,-0.99,0.02,0.00,1.00000,0.00000,0.00000,0.00000,0.017,0.0000
2025,6,11,12:07:51.740,-1.396,21,0.0,0.0,0.0,-1.00,0.02,0.00,1.00000,0.00000,0.00000,0.00000,0.017,0.0000
2025,6,11,12:07:51.742,-1.394,23,0.0,0.0,0.0,-0.99,0.04,0.00,1.00000,0.00000,0.00000,0.00000,0.017,0.0000
2025,6,11,12:07:51.744,-1.392,25,0.0,0.0,0.1,-1.00,0.03,0.00,1.00000,0.00000,0.00000,0.00000,0.017,0.0000
2025,6,11,12:07:51.746,-1.390,27,0.0,0.0,0.0,-0.99,0.03,0.00,1.00000,0.00000,0.00000,0.00000,0.017,0.0000
2025,6,11,12:07:51.748,-1.388,29,0.0,0.0,0.0,-1.00,0.02,0.00,1.00000,0.00000,0.00000,0.00000,0.017,0.0000
2025,6,11,12:07:51.750,-1.386,31,0.0,0.0,0.0,-1.00,0.03,0.00,1.00000,0.00000,0.00000,0.00000,0.017,0.0000
2025,6,11,12:07:51.752,-1.384,33,-0.1,0.0,0.0,-1.00,0.04,0.00,1.00000,0.00000,0.00000,0.00000,0.016,0.0000
2025,6,11,12:07:51.754,-1.382,35,-0.1,0.0,-0.1,-0.99,0.02,0.00,1.00000,0.00000,0.00000,0.00000,0.017,0.0000
2025,6,11,12:07:51.756,-1.380,37,0.0,0.0,-0.1,-1.00,0.02,0.00,1.00000,0.00000,0.00000,0.00000,0.017,0.0000
2025,6,11,12:07:51.758,-1.378,39,0.0,0.0,0.0,-1.00,0.03,0.00,1.00000,0.00000,0.00000,0.00000,0.016,0.0000
2025,6,11,12:07:51.760,-1.376,41,0.0,0.0,0.0,-0.99,0.03,0.00,1.00000,0.00000,0.00000,0.00000,0.017,0.0000
2025,6,11,12:07:51.762,-1.374,43,0.0,0.0,0.0,-1.00,0.03,0.00,1.00000,0.00000,0.00000,0.00000,0.016,0.0000
2025,6,11,12:07:51.764,-1.372,45,0.0,0.0,0.0,-0.98,0.03,0.00,1.00000,0.00000,0.00000,0.00000,0.017,0.0000
2025,6,11,12:07:51.766,-1.370,47,0.0,0.0,0.0,-0.99,0.02,0.00,1.00000,0.00000,0.00000,0.00000,0.016,0.0000
2025,6,11,12:07:51.768,-1.368,49,0.0,0.0,0.0,-1.00,0.03,0.00,1.00000,0.00000,0.00000,0.00000,0.017,0.0000
2025,6,11,12:07:51.770,-1.366,51,-0.1,0.0,-0.1,-0.99,0.03,0.00,1.00000,0.00000,0.00000,0.00000,0.016,0.0000
2025,6,11,12:07:51.772,-1.364,53,0.0,0.0,0.0,-0.99,0.03,0.00,1.00000,0.00000,0.00000,0.00000,0.017,0.0000
2025,6,11,12:07:51.774,-1.362,55,0.0,0.0,0.0,-0.99,0.03,0.00,1.00000,-0.00003,0.00000,0.00000,0.017,0.0000
2025,6,11,12:07:51.776,-1.360,57,0.0,0.0,0.0,-0.99,0.02,0.00,1.00000,-0.00003,0.00000,0.00000,0.017,0.0000
2025,6,11,12:07:51.778,-1.358,59,0.0,0.0,-0.2,-0.99,0.02,0.00,1.00000,-0.00003,0.00000,0.00000,0.017,0.0000
2025,6,11,12:07:51.780,-1.356,61,0.0,0.0,0.0,-0.99,0.02,0.00,1.00000,-0.00003,0.00000,0.00000,0.017,0.0000
2025,6,11,12:07:51.782,-1.354,63,0.0,0.0,0.0,-0.99,0.03,0.00,1.00000,-0.00003,0.00000,0.00000,0.017,0.0000
2025,6,11,12:07:51.784,-1.352,65,0.0,0.0,0.0,-0.99,0.03,0.00,1.00000,-0.00003,0.00000,0.00000,0.017,0.0000
2025,6,11,12:07:51.786,-1.350,67,0.0,0.0,0.0,-1.00,0.02,0.00,1.00000,-0.00003,0.00000,0.00000,0.017,0.0000
2025,6,11,12:07:51.788,-1.348,69,0.0,0.0,-0.1,-1.00,0.03,0.00,1.00000,-0.00003,0.00000,0.00000,0.017,0.0000
2025,6,11,12:07:51.790,-1.346,71,0.0,0.0,0.0,-0.99,0.02,0.00,1.00000,-0.00003,0.00000,0.00000,0.017,0.0000
2025,6,11,12:07:51.792,-1.344,73,0.0,0.0,0.0,-1.00,0.02,0.00,1.00000,-0.00003,0.00000,0.00000,0.017,0.0000
2025,6,11,12:07:51.794,-1.342,75,0.0,0.0,0.0,-1.00,0.02,0.00,1.00000,-0.00003,0.00000,0.00000,0.017,0.0000
2025,6,11,12:07:51.796,-1.340,77,0.0,0.0,0.0,-1.00,0.03,0.00,1.00000,-0.00003,0.00000,0.00000,0.017,0.0000
2025,6,11,12:07:51.798,-1.338,79,0.0,0.0,0.0,-0.99,0.03,0.00,1.00000,-0.00003,0.00000,0.00000,0.017,0.0000
2025,6,11,12:07:51.800,-1.336,81,0.0,0.0,0.0,-0.99,0.04,0.00,1.00000,-0.00003,0.00000,0.00000,0.017,0.0000
2025,6,11,12:07:51.802,-1.334,83,0.0,0.0,0.0,-0.99,0.03,0.00,1.00000,-0.00003,0.00000,0.00000,0.018,0.0000
2025,6,11,12:07:51.804,-1.332,85,0.0,0.0,0.0,-1.00,0.03,0.00,1.00000,-0.00003,0.00000,0.00000,0.017,0.0000
2025,6,11,12:07:51.806,-1.330,87,0.0,0.0,0.0,-0.99,0.03,0.00,1.00000,-0.00003,0.00000,0.00000,0.017,0.0000
2025,6,11,12:07:51.808,-1.328,89,0.0,0.0,0.0,-0.99,0.03,0.00,1.00000,-0.00003,0.00000,0.00000,0.017,0.0000
2025,6,11,12:07:51.810,-1.326,91,0.0,0.0,-0.2,-1.00,0.02,0.00,1.00000,-0.00003,0.00000,0.00000,0.017,0.0000
2025,6,11,12:07:51.812,-1.324,93,0.0,0.0,0.0,-1.00,0.02,0.00,1.00000,-0.00003,0.00000,0.00000,0.017,0.0000
2025,6,11,12:07:51.814,-1.322,95,0.0,0.0,0.0,-0.99,0.03,0.00,1.00000,-0.00003,0.00000,0.00000,0.017,0.0000
2025,6,11,12:07:51.816,-1.320,97,0.0,0.0,0.0,-0.99,0.02,0.00,1.00000,-0.00003,0.00000,0.00000,0.017,0.0000
2025,6,11,12:07:51.818,-1.318,99,0.0,0.0,0.0,-1.00,0.03,0.00,1.00000,-0.00003,0.00000,0.00000,0.017,0.0000
2025,6,11,12:07:51.820,-1.316,101,0.0,0.0,0.0,-0.99,0.03,0.00,1.00000,-0.00003,0.00000,0.00000,0.016,0.0000
2025,6,11,12:07:51.822,-1.314,103,0.0,0.0,0.0,-0.99,0.03,0.00,1.00000,-0.00003,0.00000,0.00000,0.017,0.0000
2025,6,11,12:07:51.824,-1.312,105,0.0,0.0,0.0,-0.98,0.02,0.00,1.00000,-0.00003,0.00000,0.00000,0.017,0.0000
2025,6,11,12:07:51.826,-1.310,107,0.0,0.0,0.0,-0.99,0.02,0.00,1.00000,-0.00003,0.00000,0.00000,0.018,0.0000
2025,6,11,12:07:51.828,-1.308,109,0.0,0.0,0.0,-1.00,0.03,0.00,1.00000,-0.00003,0.00000,0.00000,0.017,0.0000
2025,6,11,12:07:51.830,-1.306,111,0.0,0.0,0.1,-0.99,0.02,0.00,1.00000,-0.00003,0.00000,0.00000,0.017,0.0000
2025,6,11,12:07:51.832,-1.304,113,0.0,0.0,0.0,-1.00,0.02,0.00,1.00000,-0.00003,0.00000,0.00000,0.017,0.0000
2025,6,11,12:07:51.834,-1.302,115,0.0,0.0,-0.1,-0.99,0.03,0.00,1.00000,-0.00003,0.00000,0.00000,0.018,0.0000
2025,6,11,12:07:51.836,-1.300,117,0.0,0.0,0.0,-0.99,0.02,0.01,1.00000,-0.00003,0.00000,0.00000,0.017,0.0000
2025,6,11,12:07:51.838,-1.298,119,0.0,0.0,0.0,-0.99,0.03,0.01,1.00000,-0.00003,0.00000,0.00000,0.017,0.0000
2025,6,11,12:07:51.840,-1.296,121,0.0,0.0,0.0,-0.99,0.03,0.00,1.00000,-0.00003,0.00000,0.00000,0.017,0.0000
2025,6,11,12:07:51.842,-1.294,123,0.0,0.0,0.0,-1.00,0.03,0.00,1.00000,-0.00003,0.00000,0.00000,0.018,0.0000
2025,6,11,12:07:51.844,-1.292,125,0.0,0.0,0.0,-1.01,0.04,0.00,1.00000,-0.00003,0.00000,0.00000,0.017,0.0000
2025,6,11,12:07:51.846,-1.290,127,0.0,0.0,-0.1,-0.99,0.03,0.00,1.00000,-0.00003,0.00000,0.00000,0.018,0.0000
2025,6,11,12:07:51.848,-1.288,129,0.0,0.0,0.0,-0.99,0.03,0.00,1.00000,-0.00003,0.00000,0.00000,0.018,0.0000
2025,6,11,12:07:51.850,-1.286,131,0.0,0.0,-0.1,-0.99,0.02,0.00,1.00000,-0.00003,0.00000,0.00000,0.017,0.0000
2025,6,11,12:07:51.852,-1.284,133,0.0,0.0,0.0,-1.00,0.02,0.00,1.00000,-0.00003,0.00000,0.00000,0.017,0.0000
2025,6,11,12:07:51.854,-1.282,135,0.0,0.0,0.0,-0.99,0.03,0.00,1.00000,-0.00003,0.00000,0.00000,0.017,0.0000
2025,6,11,12:07:51.856,-1.280,137,0.0,0.0,0.0,-0.99,0.03,0.00,1.00000,-0.00003,0.00000,0.00000,0.017,0.0000
2025,6,11,12:07:51.858,-1.278,139,0.0,0.0,0.0,-0.99,0.02,0.00,1.00000,-0.00003,0.00000,0.00000,0.018,0.0000
2025,6,11,12:07:51.860,-1.276,141,0.0,0.0,0.0,-0.99,0.02,0.00,1.00000,-0.00003,0.00000,0.00000,0.018,0.0000
2025,6,11,12:07:51.862,-1.274,143,0.0,0.0,-0.2,-0.99,0.02,0.00,1.00000,-0.00003,0.00000,0.00000,0.017,0.0000
2025,6,11,12:07:51.864,-1.272,145,0.0,0.0,0.0,-0.99,0.02,0.00,1.00000,-0.00003,0.00000,0.00000,0.016,0.0000
2025,6,11,12:07:51.866,-1.270,147,0.1,0.0,0.0,-0.99,0.02,0.00,1.00000,-0.00003,0.00000,0.00000,0.017,0.0000
2025,6,11,12:07:51.868,-1.268,149,0.0,0.0,0.0,-1.00,0.03,0.00,1.00000,-0.00003,0.00000,0.00000,0.018,0.0000
2025,6,11,12:07:51.870,-1.266,151,0.0,0.0,0.0,-1.00,0.03,0.00,1.00000,-0.00003,0.00000,0.00000,0.017,0.0000
2025,6,11,12:07:51.872,-1.264,153,0.0,0.0,0.0,-0.99,0.02,0.00,1.00000,-0.00003,0.00000,0.00000,0.017,0.0000
2025,6,11,12:07:51.874,-1.262,155,0.0,0.0,0.0,-1.00,0.02,0.00,1.00000,-0.00003,0.00000,0.00000,0.017,0.0000
2025,6,11,12:07:51.876,-1.260,157,0.0,0.0,0.0,-0.99,0.03,0.00,1.00000,-0.00003,0.00000,0.00000,0.017,0.0000
2025,6,11,12:07:51.878,-1.258,159,0.0,0.0,0.0,-0.99,0.02,0.00,1.00000,-0.00003,0.00000,0.00000,0.017,0.0000
2025,6,11,12:07:51.880,-1.256,161,0.0,0.0,-0.1,-0.99,0.03,0.00,1.00000,-0.00003,0.00000,0.00000,0.017,0.0000
2025,6,11,12:07:51.882,-1.254,163,0.0,0.0,0.0,-1.00,0.03,0.00,1.00000,-0.00003,0.00000,0.00000,0.017,0.0000
2025,6,11,12:07:51.884,-1.252,165,0.0,0.0,0.0,-0.99,0.02,0.00,1.00000,-0.00003,0.00000,0.00000,0.018,0.0000
2025,6,11,12:07:51.886,-1.250,167,0.0,0.0,0.2,-0.99,0.03,0.00,1.00000,-0.00003,0.00000,0.00000,0.017,0.0000
2025,6,11,12:07:51.888,-1.248,169,0.0,0.0,0.0,-0.99,0.03,0.00,1.00000,-0.00003,0.00000,0.00000,0.017,0.0000
2025,6,11,12:07:51.890,-1.246,171,0.0,0.0,-0.1,-0.99,0.03,0.00,1.00000,-0.00003,0.00000,0.00000,0.017,0.0000
2025,6,11,12:07:51.892,-1.244,173,0.0,0.0,0.0,-1.00,0.03,0.00,1.00000,-0.00003,0.00000,0.00000,0.017,0.0000
2025,6,11,12:07:51.894,-1.242,175,0.0,0.0,0.0,-0.99,0.03,0.00,1.00000,-0.00003,0.00000,0.00000,0.016,0.0000
2025,6,11,12:07:51.896,-1.240,177,0.0,0.0,0.0,-0.99,0.03,0.00,1.00000,-0.00003,0.00000,0.00000,0.016,0.0000
2025,6,11,12:07:51.898,-1.238,179,0.0,0.0,0.0,-0.99,0.02,0.00,1.00000,-0.00003,0.00000,0.00000,0.017,0.0000
2025,6,11,12:07:51.900,-1.236,181,0.0,0.0,0.0,-0.99,0.03,0.00,1.00000,-0.00003,0.00000,0.00000,0.017,0.0000
2025,6,11,12:07:51.902,-1.234,183,0.0,0.0,0.0,-1.00,0.03,0.00,1.00000,-0.00003,0.00000,0.00000,0.017,0.0000
2025,6,11,12:07:51.904,-1.232,185,0.0,0.0,0.0,-0.99,0.02,0.01,1.00000,-0.00003,0.00000,0.00000,0.018,0.0000
2025,6,11,12:07:51.906,-1.230,187,0.0,0.0,0.0,-0.99,0.03,0.00,1.00000,-0.00003,0.00000,0.00000,0.017,0.0000
2025,6,11,12:07:51.908,-1.228,189,0.0,0.0,0.0,-1.00,0.03,0.00,1.00000,-0.00003,0.00000,0.00000,0.017,0.0000
2025,6,11,12:07:51.910,-1.226,191,0.0,0.0,0.0,-1.00,0.02,0.00,1.00000,-0.00003,0.00000,0.00000,0.017,0.0000
2025,6,11,12:07:51.912,-1.224,193,0.0,0.0,0.0,-1.00,0.02,0.00,1.00000,-0.00003,0.00000,0.00000,0.017,0.0000
2025,6,11,12:07:51.914,-1.222,195,0.1,0.1,0.0,-1.00,0.03,0.00,1.00000,-0.00003,0.00000,0.00000,0.017,0.0000
2025,6,11,12:07:51.916,-1.220,197,0.0,0.0,0.0,-0.99,0.04,0.00,1.00000,-0.00003,0.00000,0.00000,0.017,0.0000
2025,6,11,12:07:51.918,-1.218,199,0.0,0.0,0.0,-1.00,0.02,0.00,1.00000,-0.00003,0.00000,0.00000,0.017,0.0000
2025,6,11,12:07:51.920,-1.216,201,0.0,0.0,0.0,-0.99,0.02,0.00,1.00000,-0.00003,0.00000,0.00000,0.016,0.0000
2025,6,11,12:07:51.922,-1.214,203,0.0,0.0,0.0,-0.99,0.02,0.00,1.00000,-0.00003,0.00000,0.00000,0.017,0.0000
2025,6,11,12:07:51.924,-1.212,205,0.0,0.0,0.0,-0.99,0.03,0.00,1.00000,-0.00003,0.00000,0.00000,0.016,0.0000
2025,6,11,12:07:51.926,-1.210,207,0.0,0.0,0.0,-0.99,0.03,0.00,1.00000,-0.00003,0.00000,0.00000,0.017,0.0000
2025,6,11,12:07:51.928,-1.208,209,0.0,0.0,0.0,-0.98,0.03,0.00,1.00000,-0.00003,0.00000,0.00000,0.017,0.0000
2025,6,11,12:07:51.930,-1.206,211,0.0,0.0,0.0,-0.99,0.02,0.00,1.00000,-0.00003,0.00000,0.00000,0.017,0.0000
2025,6,11,12:07:51.932,-1.204,213,-0.1,0.0,0.0,-0.99,0.03,0.00,1.00000,-0.00003,0.00000,0.00000,0.017,0.0000
2025,6,11,12:07:51.934,-1.202,215,0.0,0.0,0.0,-1.00,0.03,0.00,1.00000,-0.00003,0.00000,0.00000,0.017,0.0000
2025,6,11,12:07:51.936,-1.200,217,0.0,0.0,0.0,-0.99,0.03,0.00,1.00000,-0.00003,0.00000,0.00000,0.016,0.0000
2025,6,11,12:07:51.938,-1.198,219,0.0,0.0,0.0,-0.99,0.03,0.00,1.00000,-0.00003,0.00000,0.00000,0.017,0.0000
2025,6,11,12:07:51.940,-1.196,221,0.0,0.0,0.0,-0.99,0.03,0.00,1.00000,-0.00003,0.00000,0.00000,0.017,0.0000
2025,6,11,12:07:51.942,-1.194,223,0.0,0.0,0.0,-1.00,0.03,0.00,1.00000,-0.00003,0.00000,0.00000,0.017,0.0000
2025,6,11,12:07:51.944,-1.192,225,0.0,0.0,0.0,-0.99,0.03,0.00,1.00000,-0.00003,0.00000,0.00000,0.017,0.0000
2025,6,11,12:07:51.946,-1.190,227,0.0,0.0,0.0,-0.99,0.03,0.00,1.00000,-0.00007,0.00000,0.00000,0.017,0.0000
2025,6,11,12:07:51.948,-1.188,229,-0.1,0.0,0.0,-0.99,0.03,0.00,1.00000,-0.00007,0.00000,0.00000,0.017,0.0000
2025,6,11,12:07:51.950,-1.186,231,0.0,0.0,0.1,-0.99,0.02,0.00,1.00000,-0.00007,0.00000,0.00000,0.017,0.0000
2025,6,11,12:07:51.952,-1.184,233,0.0,0.0,0.0,-1.00,0.02,0.00,1.00000,-0.00007,0.00000,0.00000,0.017,0.0000
2025,6,11,12:07:51.954,-1.182,235,0.0,0.0,0.0,-0.99,0.03,0.00,1.00000,-0.00007,0.00000,0.00000,0.018,0.0000
2025,6,11,12:07:51.956,-1.180,237,0.0,0.0,0.0,-0.99,0.02,0.00,1.00000,-0.00007,0.00000,0.00000,0.017,0.0000
2025,6,11,12:07:51.958,-1.178,239,0.0,0.0,0.0,-1.00,0.03,0.00,1.00000,-0.00007,0.00000,0.00000,0.017,0.0000
2025,6,11,12:07:51.960,-1.176,241,0.0,0.0,0.0,-0.99,0.02,0.00,1.00000,-0.00007,0.00000,0.00000,0.016,0.0000
2025,6,11,12:07:51.962,-1.174,243,0.0,0.0,0.0,-0.99,0.03,0.00,1.00000,-0.00007,0.00000,0.00000,0.017,0.0000
2025,6,11,12:07:51.964,-1.172,245,0.0,0.0,0.0,-0.99,0.03,0.00,1.00000,-0.00007,0.00000,0.00000,0.017,0.0000
2025,6,11,12:07:51.966,-1.170,247,0.0,0.0,-0.1,-0.99,0.03,0.00,1.00000,-0.00007,0.00000,0.00000,0.016,0.0000
2025,6,11,12:07:51.968,-1.168,249,0.0,0.0,-0.1,-1.00,0.03,0.00,1.00000,-0.00007,0.00000,0.00000,0.017,0.0000
2025,6,11,12:07:51.970,-1.166,1,0.0,0.0,0.0,-0.99,0.03,0.00,1.00000,-0.00007,0.00000,0.00000,0.016,0.0000
2025,6,11,12:07:51.972,-1.164,3,0.0,-0.2,0.0,-1.00,0.03,0.00,1.00000,-0.00007,0.00000,0.00000,0.016,0.0000
2025,6,11,12:07:51.974,-1.162,5,0.0,0.0,0.0,-0.99,0.02,0.00,1.00000,-0.00007,0.00000,0.00000,0.017,0.0000
2025,6,11,12:07:51.976,-1.160,7,0.0,0.0,0.0,-0.99,0.03,0.00,1.00000,-0.00007,0.00000,0.00000,0.018,0.0000
2025,6,11,12:07:51.978,-1.158,9,0.0,0.1,0.0,-0.98,0.03,0.00,1.00000,-0.00007,0.00000,0.00000,0.017,0.0000
2025,6,11,12:07:51.980,-1.156,11,0.0,0.0,0.0,-0.99,0.02,0.00,1.00000,-0.00007,0.00000,0.00000,0.017,0.0000
2025,6,11,12:07:51.982,-1.154,13,0.0,0.0,0.0,-0.99,0.03,0.01,1.00000,-0.00007,0.00000,0.00000,0.017,0.0000
2025,6,11,12:07:51.984,-1.152,15,0.0,0.0,0.0,-0.99,0.02,0.00,1.00000,-0.00007,0.00000,0.00000,0.016,0.0000
2025,6,11,12:07:51.986,-1.150,17,0.0,0.0,0.0,-0.99,0.03,0.00,1.00000,-0.00007,0.00000,0.00000,0.017,0.0000
2025,6,11,12:07:51.988,-1.148,19,0.0,0.0,0.0,-0.99,0.02,0.01,1.00000,-0.00007,0.00000,0.00000,0.017,0.0000
2025,6,11,12:07:51.990,-1.146,21,0.1,0.0,0.0,-1.00,0.02,0.00,1.00000,-0.00007,0.00000,0.00000,0.017,0.0000
2025,6,11,12:07:51.992,-1.144,23,0.0,0.0,0.0,-0.99,0.02,0.00,1.00000,-0.00007,0.00000,0.00000,0.017,0.0000
2025,6,11,12:07:51.994,-1.142,25,0.0,0.0,0.0,-0.99,0.02,0.00,1.00000,-0.00007,0.00000,0.00000,0.017,0.0000
2025,6,11,12:07:51.996,-1.140,27,0.0,0.0,0.1,-0.99,0.02,0.00,1.00000,-0.00007,0.00000,0.00000,0.017,0.0000
2025,6,11,12:07:51.998,-1.138,29,0.0,0.0,-0.1,-0.99,0.03,0.00,1.00000,-0.00007,0.00000,0.00000,0.016,0.0000
2025,6,11,12:07:52.000,-1.136,31,0.0,0.0,0.0,-0.99,0.02,0.00,1.00000,-0.00007,0.00000,0.00000,0.017,0.0000
2025,6,11,12:07:52.002,-1.134,33,0.0,0.0,0.0,-0.99,0.03,0.00,1.00000,-0.00007,0.00000,0.00000,0.017,0.0000
2025,6,11,12:07:52.004,-1.132,35,0.0,0.0,0.0,-0.99,0.02,0.00,1.00000,-0.00007,0.00000,0.00000,0.017,0.0000
2025,6,11,12:07:52.006,-1.130,37,0.0,0.0,0.0,-0.99,0.03,0.00,1.00000,-0.00007,0.00000,0.00000,0.017,0.0000
2025,6,11,12:07:52.008,-1.128,39,0.0,0.0,0.0,-1.00,0.02,0.00,1.00000,-0.00007,0.00000,0.00000,0.017,0.0000
2025,6,11,12:07:52.010,-1.126,41,0.0,0.0,0.0,-1.00,0.03,0.00,1.00000,-0.00007,0.00000,0.00000,0.017,0.0000
2025,6,11,12:07:52.012,-1.124,43,0.0,0.0,0.0,-0.99,0.03,0.00,1.00000,-0.00007,0.00000,0.00000,0.016,0.0000
2025,6,11,12:07:52.014,-1.122,45,0.0,0.0,0.0,-0.99,0.03,0.01,1.00000,-0.00007,0.00000,0.00000,0.017,0.0000
2025,6,11,12:07:52.016,-1.120,47,0.0,0.1,0.0,-0.99,0.02,0.00,1.00000,-0.00007,0.00000,0.00000,0.017,0.0000
2025,6,11,12:07:52.018,-1.118,49,0.0,0.0,0.0,-0.99,0.02,0.00,1.00000,-0.00007,0.00000,0.00000,0.018,0.0000
2025,6,11,12:07:52.020,-1.116,51,0.0,0.0,0.0,-1.00,0.03,0.00,1.00000,-0.00007,0.00000,0.00000,0.017,0.0000
2025,6,11,12:07:52.022,-1.114,53,0.0,0.0,0.0,-0.99,0.03,0.00,1.00000,-0.00007,0.00000,0.00000,0.017,0.0000
2025,6,11,12:07:52.024,-1.112,55,0.0,0.0,0.0,-0.99,0.03,0.00,1.00000,-0.00007,0.00000,0.00000,0.017,0.0000
2025,6,11,12:07:52.026,-1.110,57,0.0,0.0,0.0,-0.99,0.03,0.00,1.00000,-0.00007,0.00000,0.00000,0.017,0.0000
2025,6,11,12:07:52.028,-1.108,59,0.1,0.0,-0.1,-1.00,0.03,0.00,1.00000,-0.00007,0.00000,0.00000,0.017,0.0000
2025,6,11,12:07:52.030,-1.106,61,0.0,0.1,-0.2,-1.00,0.03,0.00,1.00000,-0.00007,0.00000,0.00000,0.017,0.0000
2025,6,11,12:07:52.032,-1.104,63,0.0,0.0,-0.1,-0.99,0.03,0.00,1.00000,-0.00007,0.00000,0.00000,0.017,0.0000
2025,6,11,12:07:52.034,-1.102,65,0.0,0.0,0.0,-0.99,0.02,0.00,1.00000,-0.00007,0.00000,0.00000,0.017,0.0000
2025,6,11,12:07:52.036,-1.100,67,0.0,0.0,0.0,-1.00,0.03,0.00,1.00000,-0.00007,0.00000,0.00000,0.017,0.0000
2025,6,11,12:07:52.038,-1.098,69,0.0,0.0,0.0,-1.00,0.03,0.00,1.00000,-0.00003,0.00000,0.00000,0.017,0.0000
2025,6,11,12:07:52.040,-1.096,71,0.0,0.0,0.0,-0.99,0.02,0.00,1.00000,-0.00003,0.00000,0.00000,0.017,0.0000
2025,6,11,12:07:52.042,-1.094,73,0.0,0.0,0.0,-0.99,0.03,0.00,1.00000,-0.00003,0.00000,0.00000,0.017,0.0000
2025,6,11,12:07:52.044,-1.092,75,0.0,0.0,0.0,-0.99,0.03,0.00,1.00000,-0.00003,0.00000,0.00000,0.017,0.0000
2025,6,11,12:07:52.046,-1.090,77,0.0,0.0,0.0,-0.99,0.03,0.00,1.00000,-0.00003,0.00000,0.00000,0.017,0.0000
2025,6,11,12:07:52.048,-1.088,79,0.0,0.1,0.0,-1.00,0.03,0.00,1.00000,-0.00003,0.00000,0.00000,0.017,0.0000
2025,6,11,12:07:52.050,-1.086,81,0.0,0.1,0.0,-1.00,0.03,0.00,1.00000,-0.00003,0.00000,0.00000,0.017,0.0000
2025,6,11,12:07:52.052,-1.084,83,0.1,0.0,0.0,-1.00,0.03,0.00,1.00000,-0.00003,0.00000,0.00000,0.017,0.0000
2025,6,11,12:07:52.054,-1.082,85,0.0,0.1,0.0,-1.00,0.02,0.00,1.00000,-0.00003,0.00000,0.00000,0.017,0.0000
2025,6,11,12:07:52.056,-1.080,87,0.0,0.0,0.0,-1.00,0.03,0.00,1.00000,-0.00003,0.00000,0.00000,0.017,0.0000
2025,6,11,12:07:52.058,-1.078,89,0.0,0.0,-0.2,-0.99,0.02,0.00,1.00000,-0.00003,0.00000,0.00000,0.017,0.0000
2025,6,11,12:07:52.060,-1.076,91,0.0,0.0,0.0,-0.99,0.02,0.00,1.00000,-0.00003,0.00000,0.00000,0.017,0.0000
2025,6,11,12:07:52.062,-1.074,93,0.0,0.0,0.0,-1.00,0.03,0.00,1.00000,-0.00003,0.00000,0.00000,0.017,0.0000
2025,6,11,12:07:52.064,-1.072,95,0.0,0.0,0.0,-1.00,0.03,0.00,1.00000,-0.00003,0.00000,0.00000,0.017,0.0000
2025,6,11,12:07:52.066,-1.070,97,0.0,-0.1,0.0,-1.01,0.03,0.00,1.00000,-0.00003,0.00000,0.00000,0.017,0.0000
2025,6,11,12:07:52.068,-1.068,99,0.0,0.0,0.0,-1.00,0.03,0.00,1.00000,-0.00003,0.00000,0.00000,0.017,0.0000
2025,6,11,12:07:52.070,-1.066,101,0.0,0.0,0.0,-0.99,0.02,0.00,1.00000,-0.00003,0.00000,0.00000,0.018,0.0000
2025,6,11,12:07:52.072,-1.064,103,0.0,0.0,0.0,-0.99,0.03,0.00,1.00000,-0.00003,0.00000,0.00000,0.017,0.0000
2025,6,11,12:07:52.074,-1.062,105,0.0,0.0,0.0,-0.99,0.02,0.00,1.00000,-0.00003,0.00000,0.00000,0.017,0.0000
2025,6,11,12:07:52.076,-1.060,107,0.0,0.1,0.0,-0.99,0.03,0.00,1.00000,-0.00003,0.00000,0.00000,0.017,0.0000
2025,6,11,12:07:52.078,-1.058,109,0.0,0.0,-0.1,-0.99,0.03,0.00,1.00000,-0.00003,0.00000,0.00000,0.018,0.0000
2025,6,11,12:07:52.080,-1.056,111,0.0,0.0,0.0,-0.99,0.02,0.00,1.00000,-0.00003,0.00000,0.00000,0.017,0.0000
2025,6,11,12:07:52.082,-1.054,113,0.0,0.0,0.0,-0.99,0.02,0.00,1.00000,-0.00003,0.00000,0.00000,0.018,0.0000
2025,6,11,12:07:52.084,-1.052,115,0.0,0.0,0.0,-1.00,0.02,0.00,1.00000,-0.00003,0.00000,0.00000,0.017,0.0000
2025,6,11,12:07:52.086,-1.050,117,0.0,0.0,0.0,-0.99,0.03,0.00,1.00000,-0.00003,0.00000,0.00000,0.017,0.0000
2025,6,11,12:07:52.088,-1.048,119,0.0,0.1,-0.1,-0.99,0.02,0.00,1.00000,-0.00003,0.00000,0.00000,0.017,0.0000
2025,6,11,12:07:52.090,-1.046,121,0.0,0.0,0.0,-0.99,0.03,0.00,1.00000,-0.00003,0.00000,0.00000,0.017,0.0000
2025,6,11,12:07:52.092,-1.044,123,0.0,0.0,0.0,-1.00,0.02,0.00,1.00000,-0.00003,0.00000,0.00000,0.018,0.0000
2025,6,11,12:07:52.094,-1.042,125,0.0,0.0,0.0,-0.99,0.03,0.00,1.00000,-0.00003,0.00000,0.00000,0.017,0.0000
2025,6,11,12:07:52.096,-1.040,127,0.0,0.0,0.0,-1.00,0.03,0.00,1.00000,-0.00003,0.00000,0.00000,0.017,0.0000
2025,6,11,12:07:52.098,-1.038,129,0.0,0.0,-0.1,-0.99,0.03,0.00,1.00000,-0.00003,0.00000,0.00000,0.017,0.0000
2025,6,11,12:07:52.100,-1.036,131,0.0,0.0,0.0,-0.99,0.02,0.00,1.00000,-0.00003,0.00000,0.00000,0.017,0.0000
2025,6,11,12:07:52.102,-1.034,133,0.0,0.0,0.0,-0.99,0.02,0.00,1.00000,-0.00003,0.00000,0.00000,0.017,0.0000
2025,6,11,12:07:52.104,-1.032,135,0.0,0.0,0.0,-0.99,0.03,0.00,1.00000,-0.00003,0.00000,0.00000,0.017,0.0000
2025,6,11,12:07:52.106,-1.030,137,0.0,0.1,-0.1,-1.00,0.02,0.00,1.00000,-0.00003,0.00000,0.00000,0.017,0.0000
2025,6,11,12:07:52.108,-1.028,139,0.0,0.0,0.0,-0.99,0.03,0.00,1.00000,-0.00003,0.00000,0.00000,0.016,0.0000
2025,6,11,12:07:52.110,-1.026,141,0.0,0.0,-0.1,-1.00,0.02,0.00,1.00000,-0.00003,0.00000,-0.00003,0.017,0.0000
2025,6,11,12:07:52.112,-1.024,143,0.0,0.0,0.0,-1.00,0.03,0.01,1.00000,-0.00003,0.00000,-0.00003,0.017,0.0000
2025,6,11,12:07:52.114,-1.022,145,0.0,0.0,0.0,-0.99,0.03,0.00,1.00000,-0.00003,0.00000,-0.00003,0.017,0.0000
2025,6,11,12:07:52.116,-1.020,147,0.0,0.0,0.1,-0.99,0.03,0.00,1.00000,-0.00003,0.00000,0.00000,0.017,0.0000
2025,6,11,12:07:52.118,-1.018,149,0.0,0.0,0.0,-1.00,0.03,0.00,1.00000,-0.00003,0.00000,-0.00003,0.017,0.0000
2025,6,11,12:07:52.120,-1.016,151,0.0,0.0,0.0,-0.99,0.03,0.00,1.00000,-0.00003,0.00000,-0.00003,0.017,0.0000
2025,6,11,12:07:52.122,-1.014,153,0.0,0.0,0.0,-0.99,0.03,0.00,1.00000,-0.00003,0.00000,0.00000,0.018,0.0000
2025,6,11,12:07:52.124,-1.012,155,0.0,0.0,0.0,-0.98,0.03,0.00,1.00000,-0.00003,0.00000,0.00000,0.017,0.0000
2025,6,11,12:07:52.126,-1.010,157,0.0,0.0,0.0,-0.99,0.02,0.00,1.00000,-0.00003,0.00000,0.00000,0.017,0.0000
2025,6,11,12:07:52.128,-1.008,159,0.0,0.0,0.0,-0.99,0.02,0.00,1.00000,-0.00003,0.00000,-0.00003,0.017,0.0000
2025,6,11,12:07:52.130,-1.006,161,0.0,0.0,0.0,-0.99,0.02,0.00,1.00000,-0.00003,0.00000,-0.00003,0.017,0.0000
2025,6,11,12:07:52.132,-1.004,163,0.0,0.0,-0.2,-0.99,0.02,0.00,1.00000,-0.00003,0.00000,-0.00003,0.017,0.0000
2025,6,11,12:07:52.134,-1.002,165,0.0,0.0,0.0,-0.99,0.03,0.00,1.00000,-0.00003,0.00000,-0.00003,0.017,0.0000
2025,6,11,12:07:52.136,-1.000,167,0.0,0.0,0.0,-0.99,0.03,0.00,1.00000,-0.00003,0.00000,-0.00003,0.017,0.0000
2025,6,11,12:07:52.138,-0.998,169,0.0,0.0,0.0,-0.99,0.03,0.00,1.00000,-0.00003,0.00000,-0.00003,0.017,0.0000
2025,6,11,12:07:52.140,-0.996,171,0.0,0.0,0.0,-1.00,0.03,0.00,1.00000,-0.00003,0.00000,-0.00003,0.017,0.0000
2025,6,11,12:07:52.142,-0.994,173,0.0,0.0,0.0,-1.00,0.03,0.00,1.00000,-0.00003,0.00000,-0.00003,0.017,0.0000
2025,6,11,12:07:52.144,-0.992,175,0.0,0.0,0.0,-0.99,0.03,0.00,1.00000,-0.00003,0.00000,-0.00003,0.017,0.0000
2025,6,11,12:07:52.146,-0.990,177,0.0,0.0,0.0,-0.99,0.02,0.00,1.00000,-0.00003,0.00000,-0.00003,0.017,0.0000
2025,6,11,12:07:52.148,-0.988,179,0.0,0.0,0.0,-1.00,0.03,0.00,1.00000,-0.00003,0.00000,-0.00003,0.017,0.0000
2025,6,11,12:07:52.150,-0.986,181,0.0,0.0,0.0,-1.00,0.02,0.00,1.00000,-0.00003,0.00000,-0.00003,0.017,0.0000
2025,6,11,12:07:52.152,-0.984,183,0.0,0.0,-0.1,-1.00,0.02,0.00,1.00000,-0.00003,0.00000,-0.00003,0.017,0.0000
2025,6,11,12:07:52.154,-0.982,185,0.0,0.0,0.0,-1.01,0.03,0.00,1.00000,-0.00003,0.00000,-0.00003,0.017,0.0000
2025,6,11,12:07:52.156,-0.980,187,0.0,0.0,0.0,-0.98,0.02,0.00,1.00000,-0.00003,0.00000,-0.00003,0.017,0.0000
2025,6,11,12:07:52.158,-0.978,189,0.0,0.0,0.0,-0.99,0.03,0.00,1.00000,-0.00003,0.00000,-0.00003,0.017,0.0000
2025,6,11,12:07:52.160,-0.976,191,0.1,0.0,0.1,-0.99,0.03,0.00,1.00000,-0.00003,0.00000,-0.00003,0.017,0.0000
2025,6,11,12:07:52.162,-0.974,193,0.0,0.0,0.0,-0.99,0.03,0.00,1.00000,-0.00003,0.00000,-0.00003,0.017,0.0000
2025,6,11,12:07:52.164,-0.972,195,0.0,0.0,0.0,-1.00,0.02,0.00,1.00000,-0.00003,0.00000,-0.00003,0.017,0.0000
2025,6,11,12:07:52.166,-0.970,197,0.0,0.0,0.0,-1.00,0.03,0.00,1.00000,-0.00003,0.00000,-0.00003,0.017,0.0000
2025,6,11,12:07:52.168,-0.968,199,0.0,0.0,0.0,-1.00,0.03,0.00,1.00000,-0.00003,0.00000,-0.00003,0.017,0.0000
2025,6,11,12:07:52.170,-0.966,201,0.0,0.0,0.1,-0.99,0.03,0.00,1.00000,-0.00003,0.00000,0.00000,0.017,0.0000
2025,6,11,12:07:52.172,-0.964,203,0.0,0.0,0.0,-1.00,0.03,0.00,1.00000,-0.00003,0.00000,0.00000,0.018,0.0000
2025,6,11,12:07:52.174,-0.962,205,0.0,0.0,0.0,-0.99,0.02,0.00,1.00000,-0.00003,0.00000,0.00000,0.017,0.0000
2025,6,11,12:07:52.176,-0.960,207,0.1,0.0,0.0,-1.00,0.03,0.00,1.00000,-0.00003,0.00000,0.00000,0.017,0.0000
2025,6,11,12:07:52.178,-0.958,209,0.1,0.1,0.0,-0.99,0.02,0.00,1.00000,-0.00003,0.00000,0.00000,0.017,0.0000
2025,6,11,12:07:52.180,-0.956,211,0.0,0.0,0.0,-0.99,0.03,0.00,1.00000,-0.00003,0.00000,0.00000,0.017,0.0000
2025,6,11,12:07:52.182,-0.954,213,0.0,0.0,0.0,-0.98,0.02,0.00,1.00000,-0.00003,0.00000,0.00000,0.017,0.0000
2025,6,11,12:07:52.184,-0.952,215,0.0,0.0,0.0,-0.99,0.03,0.00,1.00000,0.00000,0.00000,0.00000,0.017,0.0000
2025,6,11,12:07:52.186,-0.950,217,0.0,0.0,0.0,-1.00,0.03,0.00,1.00000,0.00000,0.00000,0.00000,0.017,0.0000
2025,6,11,12:07:52.188,-0.948,219,0.1,0.1,0.0,-1.00,0.02,0.00,1.00000,0.00000,0.00000,0.00000,0.017,0.0000
2025,6,11,12:07:52.190,-0.946,221,0.0,0.0,0.0,-1.00,0.02,0.00,1.00000,0.00000,0.00000,0.00000,0.017,0.0000
2025,6,11,12:07:52.192,-0.944,223,0.0,0.0,0.0,-0.99,0.03,0.00,1.00000,0.00000,0.00000,0.00000,0.018,0.0000
2025,6,11,12:07:52.194,-0.942,225,0.0,0.0,0.0,-0.99,0.03,0.00,1.00000,0.00000,0.00000,0.00000,0.017,0.0000
2025,6,11,12:07:52.196,-0.940,227,0.0,0.0,0.0,-0.99,0.03,0.00,1.00000,0.00000,0.00000,0.00000,0.018,0.0000
2025,6,11,12:07:52.198,-0.938,229,0.1,0.0,0.0,-1.00,0.02,0.00,1.00000,0.00000,0.00000,0.00000,0.017,0.0000
2025,6,11,12:07:52.200,-0.936,231,0.0,0.0,-0.1,-0.99,0.02,0.00,1.00000,0.00000,0.00000,0.00000,0.017,0.0000
2025,6,11,12:07:52.202,-0.934,233,0.0,0.0,0.0,-0.99,0.02,0.00,1.00000,0.00000,0.00000,0.00000,0.017,0.0000
2025,6,11,12:07:52.204,-0.932,235,0.0,0.0,0.0,-0.99,0.03,0.00,1.00000,0.00000,0.00000,0.00000,0.017,0.0000
2025,6,11,12:07:52.206,-0.930,237,0.0,0.0,0.0,-0.99,0.02,0.00,1.00000,0.00000,0.00000,0.00000,0.017,0.0000
2025,6,11,12:07:52.208,-0.928,239,0.0,0.0,-0.1,-0.99,0.03,0.00,1.00000,0.00000,0.00000,0.00000,0.017,0.0000
2025,6,11,12:07:52.210,-0.926,241,0.0,0.0,0.0,-0.99,0.02,0.00,1.00000,0.00000,0.00000,0.00000,0.017,0.0000
2025,6,11,12:07:52.212,-0.924,243,0.0,0.0,0.0,-0.99,0.03,0.00,1.00000,0.00000,0.00000,0.00000,0.017,0.0000
2025,6,11,12:07:52.214,-0.922,245,0.1,0.1,0.0,-0.99,0.03,0.00,1.00000,0.00000,0.00000,0.00000,0.017,0.0000
2025,6,11,12:07:52.216,-0.920,247,0.0,0.0,0.0,-1.00,0.03,0.00,1.00000,0.00000,0.00000,0.00000,0.018,0.0000
2025,6,11,12:07:52.218,-0.918,249,0.0,0.0,0.0,-0.99,0.03,0.00,1.00000,0.00000,0.00000,0.00000,0.018,0.0000
2025,6,11,12:07:52.220,-0.916,1,0.0,0.0,0.0,-1.00,0.02,0.00,1.00000,0.00000,0.00000,0.00000,0.018,0.0000
2025,6,11,12:07:52.222,-0.914,3,0.0,0.0,0.0,-0.99,0.03,0.00,1.00000,0.00000,0.00000,0.00000,0.017,0.0000
2025,6,11,12:07:52.224,-0.912,5,0.0,0.0,0.0,-0.99,0.02,0.00,1.00000,0.00000,0.00000,0.00000,0.016,0.0000
2025,6,11,12:07:52.226,-0.910,7,0.0,0.0,0.0,-0.99,0.03,0.00,1.00000,0.00000,0.00000,0.00000,0.017,0.0000
2025,6,11,12:07:52.228,-0.908,9,0.1,0.0,0.0,-0.99,0.03,0.00,1.00000,0.00000,0.00000,0.00000,0.017,0.0000
2025,6,11,12:07:52.230,-0.906,11,0.0,0.0,0.0,-1.00,0.03,0.00,1.00000,0.00000,0.00000,0.00000,0.018,0.0000
2025,6,11,12:07:52.232,-0.904,13,0.1,0.0,0.0,-0.99,0.03,0.00,1.00000,0.00000,0.00000,0.00000,0.017,0.0000
2025,6,11,12:07:52.234,-0.902,15,0.0,0.0,0.0,-0.99,0.03,0.00,1.00000,0.00000,0.00000,0.00000,0.018,0.0000
2025,6,11,12:07:52.236,-0.900,17,0.0,0.0,0.0,-0.99,0.02,0.00,1.00000,0.00000,0.00000,0.00000,0.017,0.0000
2025,6,11,12:07:52.238,-0.898,19,0.1,0.1,0.0,-1.00,0.03,0.00,1.00000,0.00000,0.00000,0.00000,0.017,0.0000
2025,6,11,12:07:52.240,-0.896,21,0.0,0.0,0.0,-1.00,0.03,0.00,1.00000,0.00000,0.00000,0.00000,0.017,0.0000
2025,6,11,12:07:52.242,-0.894,23,0.0,0.0,0.0,-0.99,0.03,0.00,1.00000,0.00000,0.00000,0.00000,0.018,0.0000
2025,6,11,12:07:52.244,-0.892,25,0.0,0.0,0.0,-1.00,0.03,0.00,1.00000,0.00000,0.00000,0.00000,0.017,0.0000
2025,6,11,12:07:52.246,-0.890,27,0.0,0.0,0.0,-1.00,0.03,0.01,1.00000,0.00000,0.00000,0.00000,0.017,0.0000
2025,6,11,12:07:52.248,-0.888,29,0.0,0.0,0.0,-0.99,0.03,0.00,1.00000,0.00000,0.00000,0.00000,0.017,0.0000
2025,6,11,12:07:52.250,-0.886,31,0.0,0.0,0.0,-0.99,0.02,0.00,1.00000,0.00000,0.00000,0.00000,0.017,0.0000
2025,6,11,12:07:52.252,-0.884,33,0.0,0.0,0.0,-0.99,0.03,0.00,1.00000,0.00000,0.00000,0.00000,0.017,0.0000
2025,6,11,12:07:52.254,-0.882,35,0.0,0.0,0.0,-0.99,0.02,0.00,1.00000,0.00000,0.00000,0.00000,0.018,0.0000
2025,6,11,12:07:52.256,-0.880,37,0.0,0.0,0.0,-0.99,0.02,0.00,1.00000,0.00000,0.00000,0.00000,0.017,0.0000
2025,6,11,12:07:52.258,-0.878,39,0.0,0.0,0.0,-0.99,0.03,0.00,1.00000,0.00000,0.00000,0.00000,0.017,0.0000
2025,6,11,12:07:52.260,-0.876,41,0.0,0.0,0.0,-1.00,0.03,0.00,1.00000,0.00000,0.00000,0.00000,0.018,0.0000
2025,6,11,12:07:52.262,-0.874,43,0.0,0.1,0.0,-1.00,0.03,0.00,1.00000,0.00000,0.00000,0.00000,0.017,0.0000
2025,6,11,12:07:52.264,-0.872,45,0.0,0.0,0.0,-1.00,0.03,0.00,1.00000,0.00000,0.00000,0.00000,0.018,0.0000
2025,6,11,12:07:52.266,-0.870,47,0.1,0.0,0.0,-1.00,0.03,0.00,1.00000,0.00000,0.00000,0.00000,0.017,0.0000
2025,6,11,12:07:52.268,-0.868,49,0.0,0.0,0.0,-0.99,0.03,0.00,1.00000,0.00000,0.00000,0.00000,0.017,0.0000
2025,6,11,12:07:52.270,-0.866,51,0.0,0.0,0.0,-0.99,0.03,0.00,1.00000,0.00000,0.00000,0.00000,0.017,0.0000
2025,6,11,12:07:52.272,-0.864,53,0.0,0.0,0.0,-0.99,0.03,0.00,1.00000,0.00000,0.00000,0.00000,0.018,0.0000
2025,6,11,12:07:52.274,-0.862,55,0.0,0.0,0.0,-0.99,0.03,0.00,1.00000,0.00000,0.00000,0.00000,0.018,0.0000
2025,6,11,12:07:52.276,-0.860,57,0.0,0.0,0.0,-0.99,0.03,0.00,1.00000,0.00000,0.00000,0.00000,0.018,0.0000
2025,6,11,12:07:52.278,-0.858,59,0.0,0.0,0.0,-0.99,0.03,0.00,1.00000,0.00000,0.00000,0.00000,0.016,0.0000
2025,6,11,12:07:52.280,-0.856,61,0.0,0.0,-0.2,-0.99,0.03,0.00,1.00000,0.00000,0.00000,0.00000,0.017,0.0000
2025,6,11,12:07:52.282,-0.854,63,0.0,0.0,0.0,-0.99,0.03,0.00,1.00000,0.00000,0.00000,0.00000,0.017,0.0000
2025,6,11,12:07:52.284,-0.852,65,0.0,0.0,0.0,-0.99,0.03,0.00,1.00000,0.00000,0.00000,0.00000,0.018,0.0000
2025,6,11,12:07:52.286,-0.850,67,0.0,0.0,0.0,-0.99,0.03,0.00,1.00000,0.00000,0.00000,0.00000,0.018,0.0000
2025,6,11,12:07:52.288,-0.848,69,0.0,0.0,0.0,-0.99,0.03,0.00,1.00000,0.00000,0.00000,0.00000,0.017,0.0000
2025,6,11,12:07:52.290,-0.846,71,0.0,0.0,0.0,-0.99,0.02,0.00,1.00000,0.00000,0.00000,0.00000,0.017,0.0000
2025,6,11,12:07:52.292,-0.844,73,0.0,0.0,-0.1,-1.00,0.03,0.00,1.00000,0.00000,0.00000,0.00000,0.017,0.0000
2025,6,11,12:07:52.294,-0.842,75,-0.1,0.0,0.0,-1.00,0.03,0.00,1.00000,0.00000,0.00000,0.00000,0.017,0.0000
2025,6,11,12:07:52.296,-0.840,77,0.0,0.0,0.0,-0.99,0.03,0.00,1.00000,0.00000,0.00000,0.00000,0.018,0.0000
2025,6,11,12:07:52.298,-0.838,79,0.0,0.0,0.1,-0.99,0.03,0.00,1.00000,0.00000,0.00000,0.00000,0.017,0.0000
2025,6,11,12:07:52.300,-0.836,81,0.0,0.0,0.0,-0.99,0.02,0.00,1.00000,0.00000,0.00000,0.00000,0.017,0.0000
2025,6,11,12:07:52.302,-0.834,83,0.0,0.0,0.0,-0.99,0.03,0.00,1.00000,0.00000,0.00000,0.00000,0.017,0.0000
2025,6,11,12:07:52.304,-0.832,85,0.0,0.0,0.0,-0.99,0.03,0.00,1.00000,0.00000,0.00000,0.00000,0.017,0.0000
2025,6,11,12:07:52.306,-0.830,87,0.0,0.0,0.0,-1.00,0.03,0.00,1.00000,0.00000,0.00000,0.00000,0.017,0.0000
2025,6,11,12:07:52.308,-0.828,89,0.0,0.0,0.0,-0.99,0.02,0.00,1.00000,0.00000,0.00000,0.00000,0.017,0.0000
2025,6,11,12:07:52.310,-0.826,91,0.1,0.0,0.0,-1.00,0.03,0.00,1.00000,0.00000,0.00000,0.00000,0.017,0.0000
2025,6,11,12:07:52.312,-0.824,93,0.0,0.0,0.0,-1.00,0.03,0.00,1.00000,0.00000,0.00000,0.00000,0.017,0.0000
2025,6,11,12:07:52.314,-0.822,95,0.0,0.0,0.0,-0.99,0.03,0.00,1.00000,0.00000,0.00000,0.00000,0.018,0.0000
2025,6,11,12:07:52.316,-0.820,97,-0.1,0.1,0.0,-0.99,0.02,0.00,1.00000,0.00000,0.00000,0.00000,0.018,0.0000
2025,6,11,12:07:52.318,-0.818,99,0.0,0.0,0.0,-1.00,0.03,0.00,1.00000,0.00000,0.00000,0.00000,0.017,0.0000
2025,6,11,12:07:52.320,-0.816,101,0.0,0.1,0.1,-1.00,0.03,0.00,1.00000,0.00000,0.00000,0.00000,0.018,0.0000
2025,6,11,12:07:52.322,-0.814,103,0.0,0.0,0.0,-0.99,0.02,0.00,1.00000,0.00000,0.00000,0.00000,0.018,0.0000
2025,6,11,12:07:52.324,-0.812,105,0.0,0.0,0.1,-1.00,0.02,0.00,1.00000,0.00000,0.00000,0.00000,0.018,0.0000
2025,6,11,12:07:52.326,-0.810,107,0.0,0.0,-0.1,-1.00,0.03,0.00,1.00000,0.00000,0.00000,0.00000,0.017,0.0000
2025,6,11,12:07:52.328,-0.808,109,0.0,0.0,0.0,-0.99,0.02,0.00,1.00000,0.00000,0.00000,0.00000,0.017,0.0000
2025,6,11,12:07:52.330,-0.806,111,-0.1,0.0,0.0,-0.99,0.02,0.00,1.00000,0.00000,0.00000,0.00000,0.018,0.0000
2025,6,11,12:07:52.332,-0.804,113,0.0,0.0,-0.1,-0.99,0.03,0.00,1.00000,0.00000,0.00000,0.00000,0.018,0.0000
2025,6,11,12:07:52.334,-0.802,115,0.0,0.0,0.0,-0.99,0.02,0.00,1.00000,0.00000,0.00000,0.00000,0.018,0.0000
2025,6,11,12:07:52.336,-0.800,117,0.0,0.0,0.0,-0.99,0.02,0.01,1.00000,0.00000,0.00000,0.00000,0.018,0.0000
2025,6,11,12:07:52.338,-0.798,119,0.0,0.0,0.0,-0.99,0.03,0.00,1.00000,0.00000,0.00000,0.00000,0.018,0.0000
2025,6,11,12:07:52.340,-0.796,121,0.0,0.0,0.2,-0.99,0.02,0.00,1.00000,0.00000,0.00000,0.00000,0.017,0.0000
2025,6,11,12:07:52.342,-0.794,123,0.0,0.0,0.0,-0.99,0.03,0.00,1.00000,0.00000,0.00000,0.00000,0.017,0.0000
2025,6,11,12:07:52.344,-0.792,125,0.0,0.1,0.0,-0.99,0.03,0.00,1.00000,0.00000,0.00000,0.00000,0.017,0.0000
2025,6,11,12:07:52.346,-0.790,127,0.0,0.0,0.1,-0.99,0.03,0.00,1.00000,0.00000,0.00000,0.00000,0.017,0.0000
2025,6,11,12:07:52.348,-0.788,129,0.0,0.1,0.0,-0.99,0.03,0.00,1.00000,0.00000,0.00000,0.00000,0.018,0.0000
2025,6,11,12:07:52.350,-0.786,131,0.0,0.0,0.0,-0.99,0.03,0.00,1.00000,0.00000,0.00000,0.00000,0.017,0.0000
2025,6,11,12:07:52.352,-0.784,133,0.0,0.0,0.0,-0.98,0.03,0.00,1.00000,0.00000,0.00000,0.00000,0.017,0.0000
2025,6,11,12:07:52.354,-0.782,135,0.0,0.0,0.0,-0.99,0.03,0.00,1.00000,0.00000,0.00000,0.00000,0.017,0.0000
2025,6,11,12:07:52.356,-0.780,137,-0.1,0.1,0.1,-0.99,0.03,0.00,1.00000,0.00000,0.00000,0.00000,0.017,0.0000
2025,6,11,12:07:52.358,-0.778,139,0.0,-0.1,0.0,-0.99,0.03,0.00,1.00000,0.00000,0.00000,0.00000,0.017,0.0000
2025,6,11,12:07:52.360,-0.776,141,0.0,0.0,0.0,-1.00,0.03,0.00,1.00000,0.00000,0.00000,0.00000,0.018,0.0000
2025,6,11,12:07:52.362,-0.774,143,0.0,0.0,0.0,-0.99,0.02,0.00,1.00000,0.00000,0.00000,0.00000,0.018,0.0000
2025,6,11,12:07:52.364,-0.772,145,0.0,0.0,0.2,-1.00,0.03,0.00,1.00000,0.00000,0.00000,0.00000,0.018,0.0000
2025,6,11,12:07:52.366,-0.770,147,0.0,0.0,0.1,-1.00,0.02,0.00,1.00000,0.00000,0.00000,0.00000,0.018,0.0000
2025,6,11,12:07:52.368,-0.768,149,0.0,0.0,0.0,-0.99,0.03,0.00,1.00000,0.00000,0.00000,0.00000,0.018,0.0000
2025,6,11,12:07:52.370,-0.766,151,0.0,0.0,0.0,-0.99,0.03,0.00,1.00000,0.00000,0.00000,0.00000,0.017,0.0000
2025,6,11,12:07:52.372,-0.764,153,0.0,0.1,0.0,-0.99,0.03,0.00,1.00000,0.00000,0.00000,0.00000,0.017,0.0000
2025,6,11,12:07:52.374,-0.762,155,0.0,0.0,0.0,-1.00,0.03,0.00,1.00000,0.00000,0.00000,0.00000,0.018,0.0000
2025,6,11,12:07:52.376,-0.760,157,0.0,0.0,0.0,-1.00,0.03,0.00,1.00000,0.00000,0.00000,0.00000,0.017,0.0000
2025,6,11,12:07:52.378,-0.758,159,0.1,0.0,0.0,-0.99,0.03,0.00,1.00000,0.00000,0.00000,0.00000,0.017,0.0000
2025,6,11,12:07:52.380,-0.756,161,0.0,0.0,0.0,-0.99,0.03,0.00,1.00000,0.00000,0.00000,0.00000,0.018,0.0000
2025,6,11,12:07:52.382,-0.754,163,0.1,0.0,0.0,-0.99,0.02,0.00,1.00000,0.00000,0.00000,0.00000,0.017,0.0000
2025,6,11,12:07:52.384,-0.752,165,0.0,0.0,0.0,-0.99,0.02,0.01,1.00000,0.00000,0.00000,0.00000,0.018,0.0000
2025,6,11,12:07:52.386,-0.750,167,0.0,0.0,0.0,-0.99,0.03,0.00,1.00000,0.00000,0.00000,0.00000,0.018,0.0000
2025,6,11,12:07:52.388,-0.748,169,0.0,0.0,0.0,-0.99,0.02,0.00,1.00000,0.00000,0.00000,0.00000,0.017,0.0000
2025,6,11,12:07:52.390,-0.746,171,0.0,0.0,0.0,-0.99,0.03,0.00,1.00000,0.00000,0.00000,0.00000,0.017,0.0000
2025,6,11,12:07:52.392,-0.744,173,0.0,0.1,0.0,-1.00,0.02,0.00,1.00000,0.00000,0.00000,0.00000,0.017,0.0000
2025,6,11,12:07:52.394,-0.742,175,0.0,0.0,0.1,-0.99,0.02,0.00,1.00000,0.00000,0.00000,0.00000,0.017,0.0000
2025,6,11,12:07:52.396,-0.740,177,0.0,0.0,0.0,-0.99,0.02,0.00,1.00000,0.00000,0.00000,0.00000,0.017,0.0000
2025,6,11,12:07:52.398,-0.738,179,0.0,0.0,0.0,-0.99,0.02,0.00,1.00000,0.00000,0.00000,0.00000,0.017,0.0000
2025,6,11,12:07:52.400,-0.736,181,0.0,0.0,0.2,-0.99,0.02,0.00,1.00000,0.00000,0.00000,0.00000,0.017,0.0000
2025,6,11,12:07:52.402,-0.734,183,0.0,0.0,0.0,-0.99,0.03,0.00,1.00000,0.00000,0.00000,0.00000,0.018,0.0000
2025,6,11,12:07:52.404,-0.732,185,0.0,0.0,0.0,-0.99,0.03,0.00,1.00000,0.00000,0.00000,0.00000,0.018,0.0000
2025,6,11,12:07:52.406,-0.730,187,0.0,0.0,0.0,-0.99,0.02,0.00,1.00000,0.00000,0.00000,0.00000,0.018,0.0000
2025,6,11,12:07:52.408,-0.728,189,0.0,0.0,0.0,-0.99,0.02,0.00,1.00000,0.00000,0.00000,0.00000,0.017,0.0000
2025,6,11,12:07:52.410,-0.726,191,0.0,0.0,0.0,-0.99,0.03,0.00,1.00000,0.00000,0.00000,0.00000,0.017,0.0000
2025,6,11,12:07:52.412,-0.724,193,0.0,0.0,0.0,-0.99,0.03,0.00,1.00000,0.00000,0.00000,0.00000,0.017,0.0000
2025,6,11,12:07:52.414,-0.722,195,0.0,0.0,0.2,-0.99,0.03,0.00,1.00000,0.00000,0.00000,0.00000,0.018,0.0000
2025,6,11,12:07:52.416,-0.720,197,0.0,0.0,0.0,-0.99,0.03,0.00,1.00000,0.00000,0.00000,0.00000,0.018,0.0000
2025,6,11,12:07:52.418,-0.718,199,0.0,-0.1,0.0,-0.99,0.03,0.00,1.00000,0.00000,0.00000,0.00000,0.018,0.0000
2025,6,11,12:07:52.420,-0.716,201,0.0,0.1,0.0,-0.99,0.03,0.00,1.00000,0.00000,0.00000,0.00000,0.017,0.0000
2025,6,11,12:07:52.422,-0.714,203,0.0,0.0,0.0,-0.99,0.03,0.00,1.00000,0.00000,0.00000,0.00000,0.017,0.0000
2025,6,11,12:07:52.424,-0.712,205,0.0,0.0,0.0,-0.99,0.03,0.00,1.00000,0.00000,0.00000,0.00000,0.018,0.0000
2025,6,11,12:07:52.426,-0.710,207,0.0,0.0,0.0,-0.99,0.02,0.00,1.00000,0.00000,0.00000,0.00000,0.018,0.0000
2025,6,11,12:07:52.428,-0.708,209,0.0,0.0,0.0,-0.99,0.02,0.00,1.00000,0.00000,0.00000,0.00000,0.018,0.0000
2025,6,11,12:07:52.430,-0.706,211,0.0,0.0,0.1,-0.99,0.02,0.00,1.00000,0.00000,0.00000,0.00000,0.018,0.0000
2025,6,11,12:07:52.432,-0.704,213,0.0,0.0,0.1,-1.00,0.02,0.00,1.00000,0.00000,0.00000,0.00000,0.018,0.0000
2025,6,11,12:07:52.434,-0.702,215,0.0,0.0,0.0,-1.00,0.03,0.00,1.00000,0.00000,0.00000,0.00000,0.018,0.0000
2025,6,11,12:07:52.436,-0.700,217,0.0,0.0,0.1,-0.99,0.03,0.00,1.00000,0.00000,0.00000,0.00000,0.017,0.0000
2025,6,11,12:07:52.438,-0.698,219,0.0,0.0,0.0,-0.99,0.03,0.00,1.00000,0.00000,0.00000,0.00000,0.018,0.0000
2025,6,11,12:07:52.440,-0.696,221,0.0,0.0,0.0,-0.99,0.02,0.00,1.00000,0.00000,0.00000,0.00000,0.018,0.0000
2025,6,11,12:07:52.442,-0.694,223,0.0,0.0,0.0,-0.99,0.03,0.00,1.00000,0.00000,0.00000,0.00000,0.017,0.0000
2025,6,11,12:07:52.444,-0.692,225,0.0,0.0,-0.1,-1.00,0.02,0.00,1.00000,0.00000,0.00000,0.00000,0.017,0.0000
2025,6,11,12:07:52.446,-0.690,227,0.0,0.0,0.0,-1.00,0.02,0.00,1.00000,0.00000,0.00000,0.00000,0.018,0.0000
2025,6,11,12:07:52.448,-0.688,229,0.0,0.0,0.1,-0.99,0.02,0.00,1.00000,0.00000,0.00000,0.00000,0.018,0.0000
2025,6,11,12:07:52.450,-0.686,231,0.0,0.0,0.1,-0.99,0.04,0.00,1.00000,0.00000,0.00000,0.00000,0.017,0.0000
2025,6,11,12:07:52.452,-0.684,233,0.0,0.0,0.0,-0.99,0.03,0.00,1.00000,0.00000,0.00000,0.00000,0.017,0.0000
2025,6,11,12:07:52.454,-0.682,235,0.0,0.0,0.0,-0.99,0.03,0.00,1.00000,0.00000,0.00000,0.00000,0.018,0.0000
2025,6,11,12:07:52.456,-0.680,237,0.0,0.0,0.0,-0.99,0.03,0.00,1.00000,0.00000,0.00000,0.00000,0.017,0.0000
2025,6,11,12:07:52.458,-0.678,239,0.0,0.0,-0.1,-1.00,0.03,0.00,1.00000,0.00000,0.00000,0.00000,0.018,0.0000
2025,6,11,12:07:52.460,-0.676,241,0.0,0.0,0.0,-0.99,0.03,0.00,1.00000,0.00000,0.00000,0.00000,0.018,0.0000
2025,6,11,12:07:52.462,-0.674,243,0.0,0.0,0.1,-1.00,0.03,0.00,1.00000,0.00000,0.00000,0.00000,0.018,0.0000
2025,6,11,12:07:52.464,-0.672,245,0.0,0.0,0.0,-0.99,0.02,0.00,1.00000,0.00000,0.00000,0.00003,0.018,0.0000
2025,6,11,12:07:52.466,-0.670,247,0.0,0.0,0.0,-0.99,0.02,0.00,1.00000,0.00000,0.00000,0.00000,0.018,0.0000
2025,6,11,12:07:52.468,-0.668,249,0.0,0.0,0.0,-0.99,0.02,0.00,1.00000,0.00000,0.00000,0.00000,0.018,0.0000
2025,6,11,12:07:52.470,-0.666,1,0.0,0.0,0.0,-0.99,0.03,0.00,1.00000,0.00000,0.00000,0.00000,0.017,0.0000
2025,6,11,12:07:52.472,-0.664,3,0.0,0.0,0.0,-0.99,0.02,0.00,1.00000,0.00000,0.00000,0.00000,0.018,0.0000
2025,6,11,12:07:52.474,-0.662,5,0.0,0.0,0.0,-1.00,0.03,0.00,1.00000,0.00000,0.00000,0.00000,0.018,0.0000
2025,6,11,12:07:52.476,-0.660,7,0.0,0.1,0.0,-0.99,0.03,0.00,1.00000,0.00000,0.00000,0.00000,0.018,0.0000
2025,6,11,12:07:52.478,-0.658,9,0.0,0.0,0.1,-1.00,0.03,0.01,1.00000,0.00000,0.00000,0.00000,0.017,0.0000
2025,6,11,12:07:52.480,-0.656,11,0.0,0.0,0.0,-1.00,0.03,0.00,1.00000,0.00000,0.00000,0.00000,0.018,0.0000
2025,6,11,12:07:52.482,-0.654,13,0.0,0.0,-0.1,-0.99,0.02,0.00,1.00000,0.00000,0.00000,0.00000,0.018,0.0000
2025,6,11,12:07:52.484,-0.652,15,0.0,0.0,0.1,-0.99,0.03,0.00,1.00000,0.00000,0.00000,0.00000,0.018,0.0000
2025,6,11,12:07:52.486,-0.650,17,0.0,0.0,0.0,-0.99,0.03,0.00,1.00000,0.00000,0.00000,0.00000,0.018,0.0000
2025,6,11,12:07:52.488,-0.648,19,0.0,0.0,0.0,-1.00,0.03,0.01,1.00000,0.00000,0.00000,0.00000,0.017,0.0000
2025,6,11,12:07:52.490,-0.646,21,0.0,0.0,0.0,-0.99,0.02,0.00,1.00000,0.00000,0.00000,0.00000,0.017,0.0000
2025,6,11,12:07:52.492,-0.644,23,0.0,0.0,0.0,-1.00,0.03,0.00,1.00000,0.00000,0.00000,0.00000,0.018,0.0000
2025,6,11,12:07:52.494,-0.642,25,-0.1,0.0,0.1,-0.99,0.02,0.00,1.00000,0.00000,0.00000,0.00000,0.017,0.0000
2025,6,11,12:07:52.496,-0.640,27,0.0,0.0,-0.1,-0.99,0.02,0.00,1.00000,0.00000,0.00000,0.00000,0.018,0.0000
2025,6,11,12:07:52.498,-0.638,29,0.0,0.0,0.0,-0.98,0.03,0.00,1.00000,0.00000,0.00000,0.00000,0.017,0.0000
2025,6,11,12:07:52.500,-0.636,31,0.0,0.0,0.0,-1.00,0.03,0.00,1.00000,0.00000,0.00000,0.00000,0.017,0.0000
2025,6,11,12:07:52.502,-0.634,33,0.0,0.0,0.0,-1.00,0.03,0.00,1.00000,0.00000,0.00000,0.00003,0.018,0.0000
2025,6,11,12:07:52.504,-0.632,35,0.0,0.0,0.0,-1.00,0.03,0.00,1.00000,0.00000,0.00000,0.00000,0.018,0.0000
2025,6,11,12:07:52.506,-0.630,37,0.0,0.0,0.0,-0.99,0.02,0.00,1.00000,0.00000,0.00000,0.00000,0.018,0.0000
2025,6,11,12:07:52.508,-0.628,39,0.0,0.0,-0.1,-1.00,0.02,0.00,1.00000,0.00000,0.00000,0.00000,0.018,0.0000
2025,6,11,12:07:52.510,-0.626,41,0.0,0.0,0.0,-0.99,0.03,0.00,1.00000,0.00000,0.00000,0.00000,0.018,0.0000
2025,6,11,12:07:52.512,-0.624,43,0.0,0.0,0.2,-0.99,0.02,0.00,1.00000,-0.00003,0.00000,0.00000,0.017,0.0000
2025,6,11,12:07:52.514,-0.622,45,0.0,0.0,0.2,-0.99,0.03,0.00,1.00000,-0.00003,0.00000,0.00003,0.017,0.0000
2025,6,11,12:07:52.516,-0.620,47,0.0,0.0,0.0,-0.99,0.03,0.00,1.00000,-0.00003,0.00000,0.00003,0.017,0.0000
2025,6,11,12:07:52.518,-0.618,49,0.0,0.0,0.0,-0.98,0.02,0.00,1.00000,-0.00003,0.00000,0.00003,0.018,0.0000
2025,6,11,12:07:52.520,-0.616,51,0.0,0.0,0.0,-0.99,0.02,0.00,1.00000,-0.00003,0.00000,0.00003,0.017,0.0000
2025,6,11,12:07:52.522,-0.614,53,0.0,0.0,0.0,-0.99,0.02,0.00,1.00000,-0.00003,0.00000,0.00003,0.017,0.0000
2025,6,11,12:07:52.524,-0.612,55,0.0,0.0,0.0,-0.99,0.03,0.00,1.00000,-0.00003,0.00000,0.00003,0.017,0.0000
2025,6,11,12:07:52.526,-0.610,57,0.0,0.0,0.0,-0.99,0.03,0.00,1.00000,-0.00003,0.00000,0.00003,0.017,0.0000
2025,6,11,12:07:52.528,-0.608,59,0.0,0.0,0.0,-0.98,0.03,0.00,1.00000,-0.00003,0.00000,0.00003,0.018,0.0000
2025,6,11,12:07:52.530,-0.606,61,0.0,0.0,0.0,-0.99,0.03,0.00,1.00000,-0.00003,0.00000,0.00003,0.017,0.0000
2025,6,11,12:07:52.532,-0.604,63,0.1,0.0,-0.2,-0.99,0.03,0.00,1.00000,-0.00003,0.00000,0.00003,0.017,0.0000
2025,6,11,12:07:52.534,-0.602,65,0.0,0.0,0.0,-0.99,0.02,0.00,1.00000,-0.00003,0.00000,0.00003,0.018,0.0000
2025,6,11,12:07:52.536,-0.600,67,0.0,0.0,0.0,-0.99,0.02,0.00,1.00000,-0.00003,0.00000,0.00000,0.018,0.0000
2025,6,11,12:07:52.538,-0.598,69,0.0,0.0,0.0,-0.99,0.03,0.00,1.00000,-0.00003,0.00000,0.00003,0.017,0.0000
2025,6,11,12:07:52.540,-0.596,71,0.0,0.0,-0.1,-1.00,0.03,0.00,1.00000,-0.00003,0.00000,0.00000,0.017,0.0000
2025,6,11,12:07:52.542,-0.594,73,0.0,0.0,0.0,-0.99,0.02,0.00,1.00000,-0.00003,0.00000,0.00000,0.018,0.0000
2025,6,11,12:07:52.544,-0.592,75,0.0,0.0,0.0,-0.99,0.03,0.00,1.00000,-0.00003,0.00000,0.00000,0.018,0.0000
2025,6,11,12:07:52.546,-0.590,77,0.0,0.0,0.1,-1.00,0.03,0.00,1.00000,-0.00003,0.00000,0.00003,0.017,0.0000
2025,6,11,12:07:52.548,-0.588,79,0.0,0.0,0.0,-1.00,0.03,0.00,1.00000,-0.00003,0.00000,0.00003,0.017,0.0000
2025,6,11,12:07:52.550,-0.586,81,0.0,0.0,0.0,-1.00,0.03,0.00,1.00000,-0.00003,0.00000,0.00003,0.017,0.0000
2025,6,11,12:07:52.552,-0.584,83,0.0,0.0,0.1,-0.99,0.03,0.00,1.00000,-0.00003,0.00000,0.00003,0.018,0.0000
2025,6,11,12:07:52.554,-0.582,85,0.0,0.0,0.0,-0.98,0.03,0.00,1.00000,-0.00003,0.00000,0.00003,0.018,0.0000
2025,6,11,12:07:52.556,-0.580,87,0.0,0.0,0.0,-0.99,0.03,0.00,1.00000,-0.00003,0.00000,0.00003,0.017,0.0000
2025,6,11,12:07:52.558,-0.578,89,0.0,0.0,-0.1,-1.01,0.03,0.00,1.00000,-0.00003,0.00000,0.00003,0.017,0.0000
2025,6,11,12:07:52.560,-0.576,91,0.0,0.0,0.0,-0.99,0.03,0.00,1.00000,-0.00003,0.00000,0.00003,0.017,0.0000
2025,6,11,12:07:52.562,-0.574,93,0.0,0.0,0.0,-0.99,0.03,0.00,1.00000,-0.00003,0.00000,0.00003,0.018,0.0000
2025,6,11,12:07:52.564,-0.572,95,0.0,0.0,0.0,-1.00,0.02,0.00,1.00000,-0.00003,0.00000,0.00003,0.017,0.0000
2025,6,11,12:07:52.566,-0.570,97,0.0,0.0,0.0,-1.00,0.01,0.00,1.00000,-0.00003,0.00000,0.00003,0.017,0.0000
2025,6,11,12:07:52.568,-0.568,99,0.0,0.0,0.1,-0.99,0.03,0.00,1.00000,-0.00003,0.00000,0.00003,0.017,0.0000
2025,6,11,12:07:52.570,-0.566,101,0.0,0.0,0.0,-0.99,0.03,0.01,1.00000,-0.00003,0.00000,0.00003,0.017,0.0000
2025,6,11,12:07:52.572,-0.564,103,0.0,0.0,0.0,-0.99,0.03,0.00,1.00000,-0.00003,0.00000,0.00003,0.017,0.0000
2025,6,11,12:07:52.574,-0.562,105,0.1,0.0,0.0,-1.00,0.03,0.00,1.00000,-0.00003,0.00000,0.00003,0.017,0.0000
2025,6,11,12:07:52.576,-0.560,107,0.0,0.0,0.1,-0.99,0.03,0.00,1.00000,-0.00003,0.00000,0.00003,0.017,0.0000
2025,6,11,12:07:52.578,-0.558,109,0.1,0.0,0.0,-1.01,0.03,0.00,1.00000,-0.00003,0.00000,0.00003,0.017,0.0000
2025,6,11,12:07:52.580,-0.556,111,0.1,0.0,0.0,-0.99,0.02,0.00,1.00000,-0.00003,0.00000,0.00003,0.018,0.0000
2025,6,11,12:07:52.582,-0.554,113,0.0,0.0,0.0,-0.99,0.02,0.00,1.00000,-0.00003,0.00000,0.00003,0.018,0.0000
2025,6,11,12:07:52.584,-0.552,115,0.0,0.0,0.0,-0.98,0.03,0.01,1.00000,-0.00003,0.00000,0.00003,0.018,0.0000
2025,6,11,12:07:52.586,-0.550,117,0.0,0.0,0.1,-0.99,0.03,0.00,1.00000,-0.00003,0.00000,0.00003,0.017,0.0000
2025,6,11,12:07:52.588,-0.548,119,0.0,0.0,0.1,-0.99,0.03,0.00,1.00000,-0.00003,0.00000,0.00003,0.018,0.0000
2025,6,11,12:07:52.590,-0.546,121,0.0,0.0,0.0,-0.99,0.03,0.00,1.00000,-0.00003,0.00000,0.00003,0.017,0.0000
2025,6,11,12:07:52.592,-0.544,123,0.0,0.0,0.0,-0.99,0.03,0.00,1.00000,-0.00003,0.00000,0.00003,0.017,0.0000
2025,6,11,12:07:52.594,-0.542,125,0.1,0.0,0.0,-0.98,0.03,0.00,1.00000,-0.00003,0.00000,0.00003,0.018,0.0000
2025,6,11,12:07:52.596,-0.540,127,0.0,0.0,0.0,-0.99,0.03,0.00,1.00000,-0.00003,0.00000,0.00003,0.017,0.0000
2025,6,11,12:07:52.598,-0.538,129,0.1,0.0,0.0,-0.98,0.02,0.00,1.00000,0.00000,0.00000,0.00003,0.017,0.0000
2025,6,11,12:07:52.600,-0.536,131,0.0,0.0,0.0,-1.00,0.02,0.00,1.00000,0.00000,0.00000,0.00003,0.017,0.0000
2025,6,11,12:07:52.602,-0.534,133,0.0,0.0,0.1,-0.99,0.03,0.00,1.00000,0.00000,0.00000,0.00003,0.017,0.0000
2025,6,11,12:07:52.604,-0.532,135,0.0,0.0,0.0,-0.99,0.03,0.00,1.00000,0.00000,0.00000,0.00003,0.017,0.0000
2025,6,11,12:07:52.606,-0.530,137,0.0,0.0,-0.2,-0.99,0.03,0.00,1.00000,0.00000,0.00000,0.00003,0.017,0.0000
2025,6,11,12:07:52.608,-0.528,139,0.0,0.0,0.0,-0.99,0.02,0.00,1.00000,0.00000,0.00000,0.00003,0.017,0.0000
2025,6,11,12:07:52.610,-0.526,141,0.1,0.0,0.0,-0.99,0.03,0.00,1.00000,0.00000,0.00000,0.00003,0.017,0.0000
2025,6,11,12:07:52.612,-0.524,143,0.0,0.0,0.0,-0.99,0.03,0.00,1.00000,0.00000,0.00000,0.00003,0.018,0.0000
2025,6,11,12:07:52.614,-0.522,145,0.1,0.0,0.0,-1.00,0.03,0.00,1.00000,0.00000,0.00000,0.00003,0.017,0.0000
2025,6,11,12:07:52.616,-0.520,147,0.1,0.0,0.0,-1.00,0.03,0.01,1.00000,0.00000,0.00000,0.00003,0.017,0.0000
2025,6,11,12:07:52.618,-0.518,149,0.0,0.0,0.0,-1.00,0.03,0.00,1.00000,0.00000,0.00000,0.00003,0.018,0.0000
2025,6,11,12:07:52.620,-0.516,151,0.1,0.0,0.0,-0.99,0.03,0.00,1.00000,0.00000,0.00000,0.00003,0.017,0.0000
2025,6,11,12:07:52.622,-0.514,153,0.0,0.0,0.0,-1.00,0.03,0.00,1.00000,0.00000,0.00000,0.00003,0.017,0.0000
2025,6,11,12:07:52.624,-0.512,155,0.1,0.0,0.1,-0.99,0.03,0.00,1.00000,0.00000,0.00000,0.00003,0.018,0.0000
2025,6,11,12:07:52.626,-0.510,157,0.0,0.0,0.0,-1.00,0.03,0.00,1.00000,0.00000,0.00000,0.00003,0.017,0.0000
2025,6,11,12:07:52.628,-0.508,159,0.0,0.0,0.0,-1.00,0.03,0.00,1.00000,0.00000,0.00000,0.00003,0.017,0.0000
2025,6,11,12:07:52.630,-0.506,161,0.0,0.0,0.0,-1.00,0.02,0.00,1.00000,0.00000,0.00000,0.00003,0.018,0.0000
2025,6,11,12:07:52.632,-0.504,163,0.0,0.0,0.0,-1.00,0.03,0.01,1.00000,0.00000,0.00000,0.00003,0.017,0.0000
2025,6,11,12:07:52.634,-0.502,165,0.0,0.0,0.0,-1.00,0.03,0.00,1.00000,0.00000,0.00000,0.00003,0.017,0.0000
2025,6,11,12:07:52.636,-0.500,167,0.0,0.0,0.1,-1.00,0.03,0.00,1.00000,0.00000,0.00000,0.00003,0.017,0.0000
2025,6,11,12:07:52.638,-0.498,169,0.0,0.0,0.0,-0.99,0.02,0.01,1.00000,0.00000,0.00000,0.00003,0.017,0.0000
2025,6,11,12:07:52.640,-0.496,171,0.0,0.0,0.1,-0.99,0.03,0.00,1.00000,0.00000,0.00000,0.00003,0.018,0.0000
2025,6,11,12:07:52.642,-0.494,173,0.0,0.0,0.0,-0.98,0.03,0.00,1.00000,0.00000,0.00000,0.00003,0.017,0.0000
2025,6,11,12:07:52.644,-0.492,175,0.1,0.0,0.0,-0.99,0.02,0.00,1.00000,0.00000,0.00000,0.00003,0.017,0.0000
2025,6,11,12:07:52.646,-0.490,177,0.1,0.0,0.0,-0.99,0.03,0.00,1.00000,0.00000,0.00000,0.00003,0.017,0.0000
2025,6,11,12:07:52.648,-0.488,179,0.0,0.0,-0.1,-0.99,0.02,0.00,1.00000,0.00000,0.00000,0.00003,0.017,0.0000
2025,6,11,12:07:52.650,-0.486,181,0.1,0.0,0.1,-1.00,0.03,0.00,1.00000,0.00000,0.00000,0.00003,0.017,0.0000
2025,6,11,12:07:52.652,-0.484,183,0.0,0.0,0.0,-1.00,0.03,0.00,1.00000,0.00000,0.00000,0.00003,0.017,0.0000
2025,6,11,12:07:52.654,-0.482,185,0.0,0.0,0.0,-0.99,0.03,0.00,1.00000,0.00000,0.00000,0.00003,0.017,0.0000
2025,6,11,12:07:52.656,-0.480,187,0.0,0.1,0.1,-1.00,0.03,0.00,1.00000,0.00000,0.00000,0.00003,0.017,0.0000
2025,6,11,12:07:52.658,-0.478,189,0.0,0.0,0.0,-1.00,0.03,0.00,1.00000,0.00000,0.00000,0.00003,0.017,0.0000
2025,6,11,12:07:52.660,-0.476,191,0.0,0.0,0.0,-1.00,0.03,0.00,1.00000,0.00000,0.00000,0.00003,0.016,0.0000
2025,6,11,12:07:52.662,-0.474,193,0.0,0.0,-0.1,-1.00,0.03,0.00,1.00000,0.00000,0.00000,0.00003,0.018,0.0000
2025,6,11,12:07:52.664,-0.472,195,0.0,0.1,0.0,-0.99,0.02,0.00,1.00000,0.00000,0.00000,0.00003,0.017,0.0000
2025,6,11,12:07:52.666,-0.470,197,0.0,0.0,0.1,-1.00,0.03,0.01,1.00000,0.00000,0.00000,0.00003,0.017,0.0000
2025,6,11,12:07:52.668,-0.468,199,0.0,0.1,-0.1,-1.00,0.02,0.00,1.00000,0.00000,0.00000,0.00003,0.017,0.0000
2025,6,11,12:07:52.670,-0.466,201,0.0,0.0,-0.1,-0.99,0.02,0.00,1.00000,0.00000,0.00000,0.00003,0.018,0.0000
2025,6,11,12:07:52.672,-0.464,203,0.0,0.0,0.0,-0.99,0.03,0.00,1.00000,0.00000,0.00000,0.00003,0.016,0.0000
2025,6,11,12:07:52.674,-0.462,205,0.0,0.0,0.0,-0.99,0.03,0.00,1.00000,0.00000,0.00000,0.00003,0.018,0.0000
2025,6,11,12:07:52.676,-0.460,207,0.0,0.0,0.0,-1.00,0.03,0.00,1.00000,0.00000,0.00000,0.00003,0.016,0.0000
2025,6,11,12:07:52.678,-0.458,209,0.0,0.0,0.0,-0.99,0.02,0.00,1.00000,0.00000,0.00000,0.00003,0.017,0.0000
2025,6,11,12:07:52.680,-0.456,211,0.0,0.0,0.0,-0.99,0.03,0.00,1.00000,0.00000,0.00000,0.00003,0.017,0.0000
2025,6,11,12:07:52.682,-0.454,213,0.0,0.0,0.0,-0.99,0.03,0.00,1.00000,0.00000,0.00000,0.00003,0.017,0.0000
2025,6,11,12:07:52.684,-0.452,215,0.0,0.0,0.0,-0.99,0.03,0.00,1.00000,0.00000,0.00000,0.00003,0.017,0.0000
2025,6,11,12:07:52.686,-0.450,217,0.0,0.0,-0.1,-0.99,0.03,0.00,1.00000,0.00000,0.00000,0.00000,0.018,0.0000
2025,6,11,12:07:52.688,-0.448,219,0.0,0.0,-0.1,-1.00,0.03,0.00,1.00000,0.00000,0.00000,0.00000,0.018,0.0000
2025,6,11,12:07:52.690,-0.446,221,0.1,0.0,0.0,-0.99,0.02,0.00,1.00000,0.00000,0.00000,0.00000,0.018,0.0000
2025,6,11,12:07:52.692,-0.444,223,0.0,0.0,-0.1,-1.00,0.03,0.00,1.00000,0.00000,0.00000,0.00000,0.017,0.0000
2025,6,11,12:07:52.694,-0.442,225,0.0,0.0,-0.1,-0.99,0.03,0.00,1.00000,0.00000,0.00000,0.00000,0.017,0.0000
2025,6,11,12:07:52.696,-0.440,227,0.0,0.0,0.0,-0.99,0.02,0.00,1.00000,0.00000,0.00000,0.00000,0.017,0.0000
2025,6,11,12:07:52.698,-0.438,229,0.1,0.0,0.0,-0.99,0.02,0.00,1.00000,0.00000,0.00000,0.00000,0.017,0.0000
2025,6,11,12:07:52.700,-0.436,231,0.0,0.0,0.0,-0.98,0.04,0.00,1.00000,0.00000,0.00000,0.00000,0.018,0.0000
2025,6,11,12:07:52.702,-0.434,233,0.0,0.0,0.0,-1.00,0.03,0.00,1.00000,0.00000,0.00000,0.00000,0.017,0.0000
2025,6,11,12:07:52.704,-0.432,235,0.0,0.0,0.0,-0.99,0.03,0.00,1.00000,0.00000,0.00000,0.00000,0.017,0.0000
2025,6,11,12:07:52.706,-0.430,237,0.0,0.0,0.0,-0.99,0.02,0.00,1.00000,0.00000,0.00000,0.00000,0.017,0.0000
2025,6,11,12:07:52.708,-0.428,239,0.0,0.0,0.0,-0.99,0.02,0.00,1.00000,0.00000,0.00000,0.00000,0.017,0.0000
2025,6,11,12:07:52.710,-0.426,241,0.0,0.1,0.0,-0.99,0.03,0.01,1.00000,0.00000,0.00000,0.00000,0.018,0.0000
2025,6,11,12:07:52.712,-0.424,243,0.0,0.0,0.0,-0.99,0.02,0.00,1.00000,0.00000,0.00000,0.00000,0.018,0.0000
2025,6,11,12:07:52.714,-0.422,245,0.0,0.0,0.0,-1.00,0.02,0.00,1.00000,0.00000,0.00000,0.00000,0.017,0.0000
2025,6,11,12:07:52.716,-0.420,247,0.0,0.0,0.0,-1.00,0.03,0.00,1.00000,0.00000,0.00000,0.00000,0.017,0.0000
2025,6,11,12:07:52.718,-0.418,249,0.0,0.0,0.2,-1.00,0.02,0.00,1.00000,0.00000,0.00000,0.00000,0.017,0.0000
2025,6,11,12:07:52.720,-0.416,1,0.0,0.0,0.0,-0.99,0.02,0.00,1.00000,0.00000,0.00000,0.00000,0.017,0.0000
2025,6,11,12:07:52.722,-0.414,3,0.1,0.0,0.0,-0.99,0.03,0.00,1.00000,0.00000,0.00000,0.00000,0.016,0.0000
2025,6,11,12:07:52.724,-0.412,5,0.0,0.1,0.0,-0.99,0.02,0.00,1.00000,0.00000,0.00000,0.00000,0.018,0.0000
2025,6,11,12:07:52.726,-0.410,7,0.1,0.0,0.0,-0.99,0.02,0.00,1.00000,0.00000,0.00000,0.00000,0.017,0.0000
2025,6,11,12:07:52.728,-0.408,9,0.0,0.0,0.0,-1.00,0.03,0.00,1.00000,0.00000,0.00000,0.00000,0.018,0.0000
2025,6,11,12:07:52.730,-0.406,11,0.0,0.0,0.0,-0.99,0.03,0.00,1.00000,0.00000,0.00000,0.00000,0.018,0.0000
2025,6,11,12:07:52.732,-0.404,13,0.0,0.0,0.0,-1.00,0.02,0.00,1.00000,0.00000,0.00000,0.00000,0.017,0.0000
2025,6,11,12:07:52.734,-0.402,15,0.0,0.0,0.0,-0.99,0.03,0.00,1.00000,0.00000,0.00000,0.00000,0.017,0.0000
2025,6,11,12:07:52.736,-0.400,17,0.1,0.0,0.0,-0.99,0.02,0.00,1.00000,0.00000,0.00000,0.00000,0.017,0.0000
2025,6,11,12:07:52.738,-0.398,19,0.0,0.0,0.0,-0.99,0.03,0.00,1.00000,0.00000,0.00000,0.00000,0.017,0.0000
2025,6,11,12:07:52.740,-0.396,21,0.1,0.0,0.0,-0.99,0.03,0.00,1.00000,0.00000,0.00000,0.00000,0.017,0.0000
2025,6,11,12:07:52.742,-0.394,23,0.0,0.0,0.1,-0.99,0.03,0.00,1.00000,0.00000,0.00000,0.00000,0.017,0.0000
2025,6,11,12:07:52.744,-0.392,25,0.0,0.0,-0.1,-0.99,0.03,0.00,1.00000,0.00000,0.00000,0.00000,0.017,0.0000
2025,6,11,12:07:52.746,-0.390,27,0.0,0.0,0.0,-0.99,0.02,0.00,1.00000,0.00000,0.00000,0.00000,0.017,0.0000
2025,6,11,12:07:52.748,-0.388,29,0.0,0.0,0.1,-0.99,0.03,0.00,1.00000,0.00000,0.00000,0.00000,0.016,0.0000
2025,6,11,12:07:52.750,-0.386,31,0.0,0.0,-0.2,-0.99,0.03,0.00,1.00000,0.00000,0.00000,0.00000,0.017,0.0000
2025,6,11,12:07:52.752,-0.384,33,0.0,0.0,0.0,-0.99,0.03,0.00,1.00000,0.00000,0.00000,0.00000,0.017,0.0000
2025,6,11,12:07:52.754,-0.382,35,0.0,0.0,0.0,-0.99,0.03,0.00,1.00000,0.00000,0.00000,0.00000,0.017,0.0000
2025,6,11,12:07:52.756,-0.380,37,0.0,0.0,0.0,-1.00,0.03,0.00,1.00000,0.00000,0.00000,0.00000,0.018,0.0000
2025,6,11,12:07:52.758,-0.378,39,0.0,0.0,0.0,-0.99,0.03,0.00,1.00000,0.00000,0.00000,0.00000,0.017,0.0000
2025,6,11,12:07:52.760,-0.376,41,0.0,0.0,-0.1,-0.99,0.03,0.00,1.00000,0.00000,0.00000,0.00000,0.018,0.0000
2025,6,11,12:07:52.762,-0.374,43,0.0,0.0,0.0,-1.00,0.03,0.00,1.00000,0.00000,0.00000,0.00000,0.016,0.0000
2025,6,11,12:07:52.764,-0.372,45,0.0,0.0,-0.1,-1.00,0.03,0.00,1.00000,0.00000,0.00000,0.00000,0.017,0.0000
2025,6,11,12:07:52.766,-0.370,47,0.0,0.0,0.0,-0.99,0.03,0.00,1.00000,0.00000,0.00000,0.00000,0.016,0.0000
2025,6,11,12:07:52.768,-0.368,49,0.0,0.0,0.0,-0.99,0.03,0.00,1.00000,0.00000,0.00000,0.00000,0.016,0.0000
2025,6,11,12:07:52.770,-0.366,51,0.1,0.0,0.0,-1.00,0.03,0.00,1.00000,0.00000,0.00000,0.00000,0.017,0.0000
2025,6,11,12:07:52.772,-0.364,53,0.0,0.0,0.1,-0.99,0.02,0.00,1.00000,0.00000,0.00000,0.00000,0.017,0.0000
2025,6,11,12:07:52.774,-0.362,55,0.1,0.0,0.0,-0.99,0.02,0.00,1.00000,0.00000,0.00000,0.00000,0.017,0.0000
2025,6,11,12:07:52.776,-0.360,57,0.1,0.0,0.0,-0.99,0.03,0.00,1.00000,0.00000,0.00000,0.00000,0.017,0.0000
2025,6,11,12:07:52.778,-0.358,59,0.0,0.0,0.0,-1.00,0.01,0.00,1.00000,0.00000,0.00000,0.00000,0.017,0.0000
2025,6,11,12:07:52.780,-0.356,61,0.1,0.0,0.0,-1.00,0.03,0.00,1.00000,0.00003,0.00000,0.00000,0.017,0.0000
2025,6,11,12:07:52.782,-0.354,63,0.0,0.0,0.0,-1.00,0.03,0.00,1.00000,0.00003,0.00000,0.00000,0.017,0.0000
2025,6,11,12:07:52.784,-0.352,65,0.0,0.0,0.0,-1.00,0.02,0.00,1.00000,0.00003,0.00000,0.00000,0.017,0.0000
2025,6,11,12:07:52.786,-0.350,67,0.1,0.0,0.0,-0.99,0.03,0.00,1.00000,0.00003,0.00000,0.00000,0.017,0.0000
2025,6,11,12:07:52.788,-0.348,69,0.1,0.0,0.1,-0.99,0.03,0.00,1.00000,0.00003,0.00000,0.00000,0.017,0.0000
2025,6,11,12:07:52.790,-0.346,71,0.0,0.0,0.0,-0.99,0.03,0.00,1.00000,0.00003,0.00000,0.00000,0.017,0.0000
2025,6,11,12:07:52.792,-0.344,73,0.0,0.0,0.0,-1.00,0.03,0.00,1.00000,0.00003,0.00000,0.00000,0.017,0.0000
2025,6,11,12:07:52.794,-0.342,75,0.0,0.0,0.0,-0.99,0.02,0.00,1.00000,0.00003,0.00000,0.00000,0.017,0.0000
2025,6,11,12:07:52.796,-0.340,77,0.1,0.0,0.0,-0.99,0.02,0.00,1.00000,0.00003,0.00000,0.00000,0.017,0.0000
2025,6,11,12:07:52.798,-0.338,79,0.0,0.0,0.0,-1.00,0.02,0.00,1.00000,0.00003,0.00000,0.00000,0.017,0.0000
2025,6,11,12:07:52.800,-0.336,81,0.1,0.0,0.0,-0.99,0.03,0.00,1.00000,0.00003,0.00000,0.00000,0.017,0.0000
2025,6,11,12:07:52.802,-0.334,83,0.0,0.0,0.0,-0.99,0.03,0.00,1.00000,0.00003,0.00000,0.00000,0.017,0.0000
2025,6,11,12:07:52.804,-0.332,85,0.0,0.0,0.0,-1.00,0.03,0.00,1.00000,0.00003,0.00000,0.00000,0.017,0.0000
2025,6,11,12:07:52.806,-0.330,87,0.0,0.0,0.0,-1.00,0.04,0.00,1.00000,0.00003,0.00000,0.00000,0.017,0.0000
2025,6,11,12:07:52.808,-0.328,89,0.0,0.0,0.0,-1.00,0.02,0.00,1.00000,0.00003,0.00000,0.00000,0.017,0.0000
2025,6,11,12:07:52.810,-0.326,91,0.0,0.0,0.0,-0.99,0.02,0.01,1.00000,0.00003,0.00000,0.00000,0.017,0.0000
2025,6,11,12:07:52.812,-0.324,93,0.0,0.0,0.0,-0.99,0.03,0.00,1.00000,0.00003,0.00000,0.00000,0.017,0.0000
2025,6,11,12:07:52.814,-0.322,95,0.0,0.0,0.0,-0.99,0.03,0.00,1.00000,0.00003,0.00000,0.00000,0.017,0.0000
2025,6,11,12:07:52.816,-0.320,97,0.0,0.0,0.0,-0.99,0.03,0.00,1.00000,0.00003,0.00000,0.00000,0.017,0.0000
2025,6,11,12:07:52.818,-0.318,99,0.0,0.0,0.0,-1.00,0.03,0.00,1.00000,0.00003,0.00000,0.00000,0.017,0.0000
2025,6,11,12:07:52.820,-0.316,101,0.0,0.0,0.0,-0.99,0.03,0.00,1.00000,0.00003,0.00000,0.00000,0.017,0.0000
2025,6,11,12:07:52.822,-0.314,103,0.0,0.0,0.0,-1.00,0.03,0.00,1.00000,0.00003,0.00000,0.00000,0.017,0.0000
2025,6,11,12:07:52.824,-0.312,105,0.0,0.0,0.0,-1.00,0.02,0.00,1.00000,0.00003,0.00000,0.00000,0.017,0.0000
2025,6,11,12:07:52.826,-0.310,107,0.1,0.0,-0.1,-0.99,0.03,0.00,1.00000,0.00003,0.00000,0.00000,0.017,0.0000
2025,6,11,12:07:52.828,-0.308,109,0.0,0.0,-0.1,-1.00,0.02,0.00,1.00000,0.00003,0.00000,0.00000,0.017,0.0000
2025,6,11,12:07:52.830,-0.306,111,0.1,0.0,0.0,-0.98,0.03,0.00,1.00000,0.00003,0.00000,0.00000,0.017,0.0000
2025,6,11,12:07:52.832,-0.304,113,0.0,0.0,0.0,-0.99,0.03,0.00,1.00000,0.00003,0.00000,0.00000,0.017,0.0000
2025,6,11,12:07:52.834,-0.302,115,0.0,0.0,0.0,-0.99,0.03,0.00,1.00000,0.00003,0.00000,0.00000,0.017,0.0000
2025,6,11,12:07:52.836,-0.300,117,0.1,0.0,0.1,-0.99,0.02,0.00,1.00000,0.00003,0.00000,0.00000,0.017,0.0000
2025,6,11,12:07:52.838,-0.298,119,0.0,0.0,0.0,-0.99,0.02,0.00,1.00000,0.00003,0.00000,0.00000,0.017,0.0000
2025,6,11,12:07:52.840,-0.296,121,0.1,0.0,0.0,-1.00,0.02,0.00,1.00000,0.00003,0.00000,0.00000,0.017,0.0000
2025,6,11,12:07:52.842,-0.294,123,0.0,0.0,0.0,-0.99,0.02,0.00,1.00000,0.00007,0.00000,0.00000,0.017,0.0000
2025,6,11,12:07:52.844,-0.292,125,0.0,0.0,0.0,-1.00,0.02,0.00,1.00000,0.00007,0.00000,0.00000,0.017,0.0000
2025,6,11,12:07:52.846,-0.290,127,0.0,0.0,0.0,-0.99,0.03,0.00,1.00000,0.00007,0.00000,0.00000,0.017,0.0000
2025,6,11,12:07:52.848,-0.288,129,0.0,0.0,0.0,-0.99,0.03,0.00,1.00000,0.00007,0.00000,0.00000,0.017,0.0000
2025,6,11,12:07:52.850,-0.286,131,0.0,0.0,0.0,-1.00,0.03,0.00,1.00000,0.00007,0.00000,0.00000,0.017,0.0000
2025,6,11,12:07:52.852,-0.284,133,0.0,0.0,0.0,-0.99,0.02,0.00,1.00000,0.00007,0.00000,0.00000,0.016,0.0000
2025,6,11,12:07:52.854,-0.282,135,0.0,0.0,0.0,-0.99,0.03,0.00,1.00000,0.00007,0.00000,0.00000,0.017,0.0000
2025,6,11,12:07:52.856,-0.280,137,0.1,0.0,0.0,-1.00,0.03,0.00,1.00000,0.00007,0.00000,0.00000,0.017,0.0000
2025,6,11,12:07:52.858,-0.278,139,0.0,0.0,0.0,-0.99,0.03,0.00,1.00000,0.00007,0.00000,0.00000,0.017,0.0000
2025,6,11,12:07:52.860,-0.276,141,0.0,0.0,0.0,-0.99,0.03,0.00,1.00000,0.00007,0.00000,0.00000,0.016,0.0000
2025,6,11,12:07:52.862,-0.274,143,0.0,0.0,0.0,-1.00,0.03,0.00,1.00000,0.00007,0.00000,0.00000,0.017,0.0000
2025,6,11,12:07:52.864,-0.272,145,0.0,0.0,0.0,-1.00,0.03,0.00,1.00000,0.00007,0.00000,0.00000,0.017,0.0000
2025,6,11,12:07:52.866,-0.270,147,0.0,0.0,0.0,-0.99,0.03,0.00,1.00000,0.00007,0.00000,0.00000,0.017,0.0000
2025,6,11,12:07:52.868,-0.268,149,0.0,0.1,0.0,-0.99,0.03,0.00,1.00000,0.00007,0.00000,0.00000,0.017,0.0000
2025,6,11,12:07:52.870,-0.266,151,0.0,0.1,0.0,-0.99,0.03,0.00,1.00000,0.00007,0.00000,0.00000,0.017,0.0000
2025,6,11,12:07:52.872,-0.264,153,0.0,0.0,0.0,-1.00,0.03,0.00,1.00000,0.00007,0.00000,0.00000,0.017,0.0000
2025,6,11,12:07:52.874,-0.262,155,0.0,0.0,0.0,-0.99,0.03,0.00,1.00000,0.00007,0.00000,0.00000,0.016,0.0000
2025,6,11,12:07:52.876,-0.260,157,0.0,0.0,0.0,-0.99,0.02,0.00,1.00000,0.00007,0.00000,0.00000,0.017,0.0000
2025,6,11,12:07:52.878,-0.258,159,0.0,0.0,0.0,-0.99,0.02,0.00,1.00000,0.00007,0.00000,0.00000,0.017,0.0000
2025,6,11,12:07:52.880,-0.256,161,0.1,0.0,0.0,-0.99,0.03,0.00,1.00000,0.00007,0.00000,0.00000,0.016,0.0000
2025,6,11,12:07:52.882,-0.254,163,0.0,0.0,0.1,-1.00,0.03,0.00,1.00000,0.00007,0.00000,0.00000,0.017,0.0000
2025,6,11,12:07:52.884,-0.252,165,0.0,0.0,0.1,-1.00,0.02,0.00,1.00000,0.00007,0.00000,0.00000,0.017,0.0000
2025,6,11,12:07:52.886,-0.250,167,0.0,0.0,0.0,-0.99,0.03,0.00,1.00000,0.00007,0.00000,0.00000,0.017,0.0000
2025,6,11,12:07:52.888,-0.248,169,0.0,0.0,-0.1,-0.99,0.03,0.00,1.00000,0.00007,0.00000,0.00000,0.017,0.0000
2025,6,11,12:07:52.890,-0.246,171,0.0,0.0,0.0,-1.00,0.03,0.00,1.00000,0.00007,0.00000,0.00000,0.017,0.0000
2025,6,11,12:07:52.892,-0.244,173,0.0,0.0,0.0,-1.00,0.03,0.00,1.00000,0.00007,0.00000,0.00000,0.017,0.0000
2025,6,11,12:07:52.894,-0.242,175,0.0,0.0,0.0,-1.00,0.03,0.00,1.00000,0.00007,0.00000,0.00000,0.017,0.0000
2025,6,11,12:07:52.896,-0.240,177,0.0,0.0,0.0,-1.00,0.03,0.00,1.00000,0.00007,0.00000,0.00000,0.017,0.0000
2025,6,11,12:07:52.898,-0.238,179,0.0,0.0,0.2,-1.00,0.02,0.00,1.00000,0.00007,0.00000,0.00000,0.017,0.0000
2025,6,11,12:07:52.900,-0.236,181,0.0,0.0,0.0,-0.99,0.02,0.00,1.00000,0.00007,0.00000,0.00000,0.017,0.0000
2025,6,11,12:07:52.902,-0.234,183,0.0,0.0,0.0,-1.00,0.03,0.00,1.00000,0.00007,0.00000,0.00000,0.017,0.0000
2025,6,11,12:07:52.904,-0.232,185,0.0,0.1,0.0,-1.00,0.03,0.00,1.00000,0.00007,0.00000,0.00000,0.018,0.0000
2025,6,11,12:07:52.906,-0.230,187,0.0,0.0,0.0,-0.99,0.03,0.00,1.00000,0.00007,0.00000,0.00000,0.017,0.0000
2025,6,11,12:07:52.908,-0.228,189,0.0,0.0,0.1,-0.99,0.02,0.00,1.00000,0.00007,0.00000,0.00000,0.017,0.0000
2025,6,11,12:07:52.910,-0.226,191,0.0,0.0,0.0,-0.99,0.02,0.00,1.00000,0.00007,0.00000,0.00000,0.017,0.0000
2025,6,11,12:07:52.912,-0.224,193,0.0,0.0,0.0,-0.99,0.02,0.00,1.00000,0.00007,0.00000,0.00000,0.017,0.0000
2025,6,11,12:07:52.914,-0.222,195,0.0,0.0,0.0,-0.99,0.03,0.00,1.00000,0.00007,0.00000,0.00000,0.017,0.0000
2025,6,11,12:07:52.916,-0.220,197,0.0,0.0,0.0,-1.00,0.03,0.00,1.00000,0.00007,0.00000,0.00000,0.018,0.0000
2025,6,11,12:07:52.918,-0.218,199,0.0,0.1,0.0,-0.99,0.02,0.00,1.00000,0.00007,0.00000,0.00000,0.017,0.0000
2025,6,11,12:07:52.920,-0.216,201,0.0,0.0,0.0,-1.00,0.03,0.00,1.00000,0.00007,0.00000,0.00000,0.017,0.0000
2025,6,11,12:07:52.922,-0.214,203,0.0,0.0,0.0,-0.99,0.02,0.00,1.00000,0.00007,0.00000,0.00000,0.017,0.0000
2025,6,11,12:07:52.924,-0.212,205,0.0,0.0,0.0,-0.99,0.02,0.00,1.00000,0.00007,0.00000,0.00000,0.017,0.0000
2025,6,11,12:07:52.926,-0.210,207,0.0,0.0,0.0,-0.99,0.03,0.00,1.00000,0.00007,0.00000,0.00000,0.017,0.0000
2025,6,11,12:07:52.928,-0.208,209,0.0,0.0,0.0,-0.99,0.03,0.00,1.00000,0.00007,0.00000,0.00000,0.018,0.0000
2025,6,11,12:07:52.930,-0.206,211,0.1,0.0,0.0,-0.99,0.03,0.00,1.00000,0.00007,0.00000,0.00000,0.017,0.0000
2025,6,11,12:07:52.932,-0.204,213,0.0,0.0,0.0,-1.00,0.03,0.00,1.00000,0.00007,0.00000,0.00000,0.017,0.0000
2025,6,11,12:07:52.934,-0.202,215,0.0,0.0,0.1,-1.00,0.03,0.00,1.00000,0.00007,0.00000,0.00000,0.017,0.0000
2025,6,11,12:07:52.936,-0.200,217,0.0,0.0,0.0,-0.99,0.02,0.00,1.00000,0.00007,0.00000,0.00000,0.017,0.0000
2025,6,11,12:07:52.938,-0.198,219,0.0,0.0,-0.1,-0.99,0.02,0.01,1.00000,0.00007,0.00000,0.00000,0.018,0.0000
2025,6,11,12:07:52.940,-0.196,221,0.0,0.0,0.0,-0.99,0.03,0.00,1.00000,0.00007,0.00000,0.00000,0.017,0.0000
2025,6,11,12:07:52.942,-0.194,223,0.0,0.0,0.0,-1.00,0.02,0.00,1.00000,0.00007,0.00000,0.00000,0.017,0.0000
2025,6,11,12:07:52.944,-0.192,225,0.0,0.0,0.0,-0.99,0.03,0.00,1.00000,0.00007,0.00000,0.00000,0.018,0.0000
2025,6,11,12:07:52.946,-0.190,227,0.0,0.0,0.0,-0.99,0.02,0.00,1.00000,0.00007,0.00000,0.00000,0.017,0.0000
2025,6,11,12:07:52.948,-0.188,229,0.0,0.0,0.0,-0.99,0.02,0.00,1.00000,0.00007,0.00000,0.00000,0.018,0.0000
2025,6,11,12:07:52.950,-0.186,231,0.0,0.0,0.0,-0.99,0.03,0.00,1.00000,0.00007,0.00000,0.00000,0.017,0.0000
2025,6,11,12:07:52.952,-0.184,233,0.0,0.0,0.0,-0.98,0.03,0.00,1.00000,0.00007,0.00000,0.00000,0.017,0.0000
2025,6,11,12:07:52.954,-0.182,235,0.0,0.0,0.0,-1.00,0.03,0.00,1.00000,0.00007,0.00000,0.00000,0.017,0.0000
2025,6,11,12:07:52.956,-0.180,237,0.0,0.0,0.0,-0.99,0.03,0.00,1.00000,0.00007,0.00000,0.00000,0.016,0.0000
2025,6,11,12:07:52.958,-0.178,239,0.0,0.0,0.0,-0.99,0.03,0.00,1.00000,0.00007,0.00000,0.00000,0.017,0.0000
2025,6,11,12:07:52.960,-0.176,241,0.0,0.0,0.1,-1.00,0.03,0.00,1.00000,0.00007,0.00000,0.00000,0.016,0.0000
2025,6,11,12:07:52.962,-0.174,243,0.0,0.0,-0.1,-0.99,0.03,0.00,1.00000,0.00007,0.00000,0.00000,0.017,0.0000
2025,6,11,12:07:52.964,-0.172,245,0.0,0.0,-0.1,-0.99,0.03,0.00,1.00000,0.00007,0.00000,0.00000,0.017,0.0000
2025,6,11,12:07:52.966,-0.170,247,0.0,0.1,-0.1,-0.99,0.03,0.00,1.00000,0.00007,0.00000,0.00000,0.016,0.0000
2025,6,11,12:07:52.968,-0.168,249,0.0,0.0,0.1,-0.99,0.02,0.00,1.00000,0.00007,0.00000,0.00000,0.017,0.0000
2025,6,11,12:07:52.970,-0.166,1,0.0,0.0,0.0,-0.99,0.02,0.00,1.00000,0.00007,0.00000,0.00000,0.018,0.0000
2025,6,11,12:07:52.972,-0.164,3,0.0,0.0,0.0,-0.99,0.01,0.00,1.00000,0.00007,0.00000,0.00000,0.017,0.0000
2025,6,11,12:07:52.974,-0.162,5,0.0,0.0,0.0,-0.99,0.03,0.00,1.00000,0.00007,0.00000,0.00000,0.016,0.0000
2025,6,11,12:07:52.976,-0.160,7,0.0,0.0,-0.1,-0.99,0.02,0.00,1.00000,0.00007,0.00000,0.00000,0.017,0.0000
2025,6,11,12:07:52.978,-0.158,9,0.0,0.0,0.0,-1.01,0.03,0.00,1.00000,0.00007,0.00000,0.00000,0.017,0.0000
2025,6,11,12:07:52.980,-0.156,11,0.0,0.0,0.0,-1.00,0.02,0.00,1.00000,0.00007,0.00000,0.00000,0.017,0.0000
2025,6,11,12:07:52.982,-0.154,13,0.0,0.0,0.0,-1.03,0.02,0.00,1.00000,0.00007,0.00000,0.00000,0.017,0.0000
2025,6,11,12:07:52.984,-0.152,15,0.0,0.0,0.0,-1.16,0.03,0.00,1.00000,0.00007,0.00000,0.00000,0.017,0.0000
2025,6,11,12:07:52.986,-0.150,17,0.0,0.1,-0.1,-0.96,0.03,0.00,1.00000,0.00007,0.00000,0.00000,0.017,0.0000
2025,6,11,12:07:52.988,-0.148,19,0.5,-0.5,0.0,-1.76,0.02,0.05,1.00000,0.00007,0.00000,0.00000,0.017,0.0000
2025,6,11,12:07:52.990,-0.146,21,0.1,0.1,0.0,-2.27,-0.03,0.04,1.00000,0.00007,0.00000,0.00000,0.017,0.0000
2025,6,11,12:07:52.992,-0.144,23,2.0,0.1,2.8,-4.12,-0.15,0.87,1.00000,0.00010,0.00000,0.00003,0.017,0.0000
2025,6,11,12:07:52.994,-0.142,25,0.6,2.1,5.1,-5.06,0.41,-0.07,1.00000,0.00013,0.00000,0.00010,0.017,0.0000
2025,6,11,12:07:52.996,-0.140,27,2.4,-0.1,5.5,-5.60,-0.18,0.45,1.00000,0.00017,0.00000,0.00020,0.017,0.0000
2025,6,11,12:07:52.998,-0.138,29,-2.1,2.4,5.4,-6.53,0.00,2.11,1.00000,0.00013,0.00007,0.00030,0.017,0.0000
2025,6,11,12:07:53.000,-0.136,31,-1.9,-1.0,3.2,-6.91,-0.70,1.37,1.00000,0.00010,0.00003,0.00037,0.017,0.0000
2025,6,11,12:07:53.002,-0.134,33,-6.7,-5.9,0.4,-8.95,0.02,0.73,1.00000,0.00000,-0.00003,0.00037,0.017,0.0000
2025,6,11,12:07:53.004,-0.132,35,-0.8,-11.1,0.4,-9.00,0.22,0.54,0.99997,0.00000,-0.00023,0.00037,0.017,0.0000
2025,6,11,12:07:53.006,-0.130,37,9.3,-9.8,0.0,-10.02,0.21,0.26,0.99997,0.00013,-0.00040,0.00037,0.017,0.0000
2025,6,11,12:07:53.008,-0.128,39,21.8,-3.5,-12.3,-8.50,0.37,-1.35,0.99997,0.00050,-0.00047,0.00017,0.017,0.0000
2025,6,11,12:07:53.010,-0.126,41,2.7,-4.8,0.8,-8.19,-0.29,-0.85,0.99997,0.00053,-0.00057,0.00017,0.017,0.0000
2025,6,11,12:07:53.012,-0.124,43,-5.0,-1.7,1.5,-7.73,0.78,-0.62,0.99997,0.00047,-0.00057,0.00020,0.017,0.0000
2025,6,11,12:07:53.014,-0.122,45,-8.4,-1.9,3.0,-7.67,-0.05,-1.24,0.99997,0.00030,-0.00060,0.00027,0.017,0.0000
2025,6,11,12:07:53.016,-0.120,47,-12.4,-1.0,0.4,-9.29,-0.07,0.10,0.99997,0.00010,-0.00063,0.00027,0.017,0.0000
2025,6,11,12:07:53.018,-0.118,49,-3.9,5.0,3.2,-9.44,0.87,-0.84,0.99997,0.00003,-0.00053,0.00030,0.017,0.0000
2025,6,11,12:07:53.020,-0.116,51,-1.8,0.0,-8.3,-8.98,1.00,-1.32,0.99997,0.00000,-0.00053,0.00017,0.017,0.0000
2025,6,11,12:07:53.022,-0.114,53,7.1,0.0,-2.2,-9.87,-0.76,0.04,0.99997,0.00013,-0.00053,0.00013,0.017,0.0000
2025,6,11,12:07:53.024,-0.112,55,1.0,15.3,7.6,-9.35,0.51,-1.10,0.99997,0.00013,-0.00027,0.00027,0.017,0.0000
2025,6,11,12:07:53.026,-0.110,57,5.6,11.1,0.2,-7.32,-0.12,0.14,1.00000,0.00023,-0.00007,0.00027,0.017,0.0000
2025,6,11,12:07:53.028,-0.108,59,5.9,2.2,0.0,-9.61,-0.43,1.77,0.99997,0.00033,-0.00003,0.00027,0.017,0.0000
2025,6,11,12:07:53.030,-0.106,61,-3.9,-3.1,-2.0,-9.49,0.28,-0.26,0.99997,0.00027,-0.00010,0.00023,0.017,0.0000
2025,6,11,12:07:53.032,-0.104,63,-5.6,1.8,2.1,-9.77,-0.37,0.12,0.99997,0.00017,-0.00007,0.00027,0.017,0.0000
2025,6,11,12:07:53.034,-0.102,65,-12.4,5.7,-5.8,-9.77,0.16,1.03,1.00000,0.00000,0.00000,0.00017,0.016,0.0000
2025,6,11,12:07:53.036,-0.100,67,-0.9,0.1,-5.6,-8.94,0.43,-0.09,1.00000,-0.00003,0.00000,0.00007,0.017,0.0000
2025,6,11,12:07:53.038,-0.098,69,1.2,0.2,-0.4,-9.53,0.70,-0.22,1.00000,0.00000,0.00000,0.00007,0.017,0.0000
2025,6,11,12:07:53.040,-0.096,71,-9.6,-4.8,1.6,-9.94,-0.39,0.67,1.00000,-0.00017,-0.00003,0.00010,0.017,0.0000
2025,6,11,12:07:53.042,-0.094,73,-10.1,1.3,-7.9,-8.92,0.30,0.21,1.00000,-0.00037,-0.00003,0.00000,0.017,0.0000
2025,6,11,12:07:53.044,-0.092,75,-11.8,-4.0,-5.4,-10.13,-0.01,0.19,0.99997,-0.00057,-0.00010,-0.00010,0.017,0.0000
2025,6,11,12:07:53.046,-0.090,77,-17.4,3.9,0.0,-10.15,-0.24,0.47,0.99997,-0.00087,-0.00003,-0.00010,0.017,0.0000
2025,6,11,12:07:53.048,-0.088,79,-14.9,0.5,-8.6,-8.72,0.19,0.34,0.99997,-0.00113,0.00000,-0.00027,0.018,0.0000
2025,6,11,12:07:53.050,-0.086,81,-5.9,2.3,-13.3,-9.04,-0.23,0.75,0.99997,-0.00123,0.00000,-0.00050,0.017,0.0000
2025,6,11,12:07:53.052,-0.084,83,-11.2,-3.2,6.2,-9.51,-0.05,0.60,0.99997,-0.00143,-0.00003,-0.00037,0.017,0.0000
2025,6,11,12:07:53.054,-0.082,85,-26.4,0.0,5.2,-9.40,-0.65,0.04,0.99997,-0.00190,-0.00003,-0.00030,0.017,0.0000
2025,6,11,12:07:53.056,-0.080,87,-23.4,1.1,2.9,-9.35,-0.21,-0.07,0.99997,-0.00230,0.00000,-0.00023,0.017,0.0000
2025,6,11,12:07:53.058,-0.078,89,-20.1,-1.7,-5.6,-9.29,0.34,0.18,0.99997,-0.00263,-0.00003,-0.00033,0.017,0.0000
2025,6,11,12:07:53.060,-0.076,91,-11.9,-2.4,-4.6,-9.54,-0.19,-0.01,0.99997,-0.00287,-0.00007,-0.00043,0.017,0.0000
2025,6,11,12:07:53.062,-0.074,93,-13.3,2.5,-7.2,-9.46,-0.09,0.00,0.99997,-0.00310,-0.00003,-0.00053,0.017,0.0000
2025,6,11,12:07:53.064,-0.072,95,-17.0,3.2,-10.0,-9.40,-0.21,0.02,0.99997,-0.00340,0.00000,-0.00073,0.017,0.0000
2025,6,11,12:07:53.066,-0.070,97,-17.7,0.8,5.7,-9.40,0.19,-0.01,0.99997,-0.00370,0.00000,-0.00063,0.017,0.0000
2025,6,11,12:07:53.068,-0.068,99,-13.1,-1.0,5.1,-9.48,0.17,0.10,0.99997,-0.00393,0.00000,-0.00053,0.017,0.0000
2025,6,11,12:07:53.070,-0.066,101,-8.9,-0.1,0.9,-9.35,0.23,0.00,0.99997,-0.00407,0.00000,-0.00050,0.017,0.0000
2025,6,11,12:07:53.072,-0.064,103,-13.1,-0.7,-7.9,-9.58,0.21,0.17,0.99997,-0.00430,0.00000,-0.00067,0.018,0.0000
2025,6,11,12:07:53.074,-0.062,105,-13.2,1.4,-1.7,-9.40,-0.10,0.00,0.99997,-0.00453,0.00000,-0.00070,0.017,0.0000
2025,6,11,12:07:53.076,-0.060,107,-17.4,-0.5,-3.2,-9.41,-0.07,0.31,0.99997,-0.00483,0.00000,-0.00073,0.017,0.0000
2025,6,11,12:07:53.078,-0.058,109,-22.3,-1.1,-3.4,-9.41,-0.08,0.28,0.99997,-0.00523,0.00000,-0.00080,0.018,0.0000
2025,6,11,12:07:53.080,-0.056,111,-22.9,-1.3,-1.1,-9.48,0.15,0.29,0.99997,-0.00563,-0.00003,-0.00083,0.017,0.0000
2025,6,11,12:07:53.082,-0.054,113,-20.5,0.1,3.8,-9.47,0.14,0.28,0.99997,-0.00600,-0.00003,-0.00077,0.017,0.0000
2025,6,11,12:07:53.084,-0.052,115,-17.1,-0.7,2.0,-9.49,-0.09,0.28,0.99997,-0.00630,-0.00003,-0.00073,0.017,0.0000
2025,6,11,12:07:53.086,-0.050,117,-18.6,1.6,-5.1,-9.55,-0.13,0.24,0.99997,-0.00663,0.00000,-0.00080,0.017,0.0000
2025,6,11,12:07:53.088,-0.048,119,-23.5,1.9,-2.9,-9.50,-0.22,0.24,0.99997,-0.00703,0.00000,-0.00087,0.016,0.0000
2025,6,11,12:07:53.090,-0.046,121,-25.8,-2.1,-1.0,-9.40,-0.18,0.33,0.99997,-0.00747,0.00000,-0.00087,0.017,0.0000
2025,6,11,12:07:53.092,-0.044,123,-28.5,0.0,-5.4,-9.58,-0.20,0.30,0.99997,-0.00797,0.00000,-0.00097,0.017,0.0000
2025,6,11,12:07:53.094,-0.042,125,-28.0,-0.6,2.3,-9.61,-0.12,0.15,0.99993,-0.00847,-0.00003,-0.00093,0.017,0.0000
2025,6,11,12:07:53.096,-0.040,127,-25.9,-1.6,5.2,-9.53,-0.21,0.01,0.99993,-0.00893,-0.00007,-0.00083,0.016,0.0000
2025,6,11,12:07:53.098,-0.038,129,-29.2,-1.2,2.8,-9.59,-0.17,0.03,0.99993,-0.00943,-0.00007,-0.00080,0.017,0.0000
2025,6,11,12:07:53.100,-0.036,131,-29.5,-2.4,-7.1,-9.63,-0.13,0.00,0.99993,-0.00993,-0.00010,-0.00090,0.017,0.0000
2025,6,11,12:07:53.102,-0.034,133,-30.8,0.3,-5.5,-9.52,0.05,0.05,0.99993,-0.01050,-0.00010,-0.00100,0.017,0.0000
2025,6,11,12:07:53.104,-0.032,135,-29.6,0.8,1.3,-9.52,0.13,0.10,0.99993,-0.01100,-0.00010,-0.00100,0.017,0.0000
2025,6,11,12:07:53.106,-0.030,137,-27.6,-1.4,-1.1,-9.60,0.01,0.30,0.99993,-0.01150,-0.00013,-0.00100,0.017,0.0000
2025,6,11,12:07:53.108,-0.028,139,-29.9,0.6,-1.6,-9.51,-0.03,0.37,0.99990,-0.01200,-0.00010,-0.00103,0.017,0.0000
2025,6,11,12:07:53.110,-0.026,141,-35.4,-1.3,3.7,-9.53,-0.04,0.38,0.99990,-0.01263,-0.00013,-0.00097,0.017,0.0000
2025,6,11,12:07:53.112,-0.024,143,-29.4,-1.9,2.0,-9.51,0.37,0.37,0.99990,-0.01313,-0.00017,-0.00093,0.017,0.0000
2025,6,11,12:07:53.114,-0.022,145,-23.8,-4.9,-7.9,-9.57,0.46,0.27,0.99990,-0.01357,-0.00023,-0.00107,0.017,0.0000
2025,6,11,12:07:53.116,-0.020,147,-10.4,-2.4,-8.4,-9.71,0.02,0.04,0.99990,-0.01373,-0.00030,-0.00123,0.017,0.0000
2025,6,11,12:07:53.118,-0.018,149,-12.7,-2.3,0.4,-9.73,-0.21,-0.13,0.99990,-0.01397,-0.00033,-0.00120,0.017,0.0000
2025,6,11,12:07:53.120,-0.016,151,-18.7,-3.0,1.3,-9.59,-0.66,0.01,0.99987,-0.01430,-0.00040,-0.00120,0.017,0.0000
2025,6,11,12:07:53.122,-0.014,153,-28.5,-1.0,0.9,-9.59,-0.31,0.43,0.99987,-0.01480,-0.00040,-0.00117,0.017,0.0000
2025,6,11,12:07:53.124,-0.012,155,-33.7,-0.6,-2.7,-9.66,-0.10,0.55,0.99987,-0.01537,-0.00040,-0.00123,0.017,0.0000
2025,6,11,12:07:53.126,-0.010,157,-28.1,-2.1,0.6,-9.56,0.34,0.35,0.99987,-0.01587,-0.00047,-0.00120,0.017,0.0000
2025,6,11,12:07:53.128,-0.008,159,-26.4,-1.9,-6.7,-9.63,0.52,0.15,0.99983,-0.01633,-0.00050,-0.00133,0.017,0.0000
2025,6,11,12:07:53.130,-0.006,161,-9.3,-4.1,-6.8,-9.75,0.68,-0.32,0.99983,-0.01650,-0.00057,-0.00143,0.017,0.0000
2025,6,11,12:07:53.132,-0.004,163,-4.7,-1.5,3.4,-9.66,0.65,-0.67,0.99983,-0.01657,-0.00060,-0.00140,0.017,0.0000
2025,6,11,12:07:53.134,-0.002,165,1.8,2.0,2.3,-9.63,0.34,-0.73,0.99983,-0.01653,-0.00057,-0.00133,0.017,0.0000
2025,6,11,12:07:53.136,0.000,167,-4.0,5.5,0.3,-9.51,-0.16,0.26,0.99983,-0.01660,-0.00047,-0.00133,0.017,0.0000
2025,6,11,12:07:53.138,0.002,169,-10.6,6.2,-1.3,-9.67,-0.43,0.56,0.99983,-0.01680,-0.00033,-0.00137,0.017,0.0000
2025,6,11,12:07:53.140,0.004,171,-29.3,2.3,1.4,-9.35,-0.75,1.04,0.99983,-0.01730,-0.00030,-0.00133,0.017,0.0000
2025,6,11,12:07:53.142,0.006,173,-34.8,-2.7,-2.8,-9.40,-0.64,0.95,0.99983,-0.01793,-0.00037,-0.00140,0.014,0.0000
2025,6,11,12:07:53.144,0.008,175,-36.3,-5.9,-5.5,-9.85,0.22,-0.03,0.99980,-0.01857,-0.00047,-0.00150,0.017,0.0000
2025,6,11,12:07:53.146,0.010,177,-30.6,-3.4,3.3,-9.65,0.01,-0.02,0.99980,-0.01910,-0.00050,-0.00143,0.017,0.0000
2025,6,11,12:07:53.148,0.012,179,-9.5,3.1,4.3,-9.70,0.97,-0.30,0.99980,-0.01927,-0.00047,-0.00137,0.017,0.0000
2025,6,11,12:07:53.150,0.014,181,10.6,1.7,1.4,-9.65,0.25,-0.47,0.99980,-0.01907,-0.00043,-0.00133,0.017,0.0000
2025,6,11,12:07:53.152,0.016,183,16.2,2.7,-4.5,-9.54,-0.31,0.55,0.99980,-0.01880,-0.00037,-0.00140,0.017,0.0000
2025,6,11,12:07:53.154,0.018,185,3.2,0.8,-0.3,-9.40,-0.27,0.44,0.99980,-0.01873,-0.00037,-0.00140,0.017,0.0000
2025,6,11,12:07:53.156,0.020,187,-2.8,0.3,-2.0,-9.33,-0.28,-0.01,0.99980,-0.01877,-0.00037,-0.00147,0.017,0.0000
2025,6,11,12:07:53.158,0.022,189,-7.3,-3.4,-3.9,-9.70,0.34,0.17,0.99980,-0.01890,-0.00043,-0.00153,0.017,0.0000
2025,6,11,12:07:53.160,0.024,191,-3.5,0.3,-4.4,-9.60,0.69,-0.38,0.99980,-0.01897,-0.00040,-0.00160,0.017,0.0000
2025,6,11,12:07:53.162,0.026,193,-2.5,1.9,3.2,-9.57,0.28,0.01,0.99980,-0.01900,-0.00037,-0.00153,0.017,0.0000
2025,6,11,12:07:53.164,0.028,195,-7.5,4.3,5.0,-9.62,0.16,0.35,0.99980,-0.01913,-0.00030,-0.00147,0.018,0.0000
2025,6,11,12:07:53.166,0.030,197,-9.7,1.8,-2.7,-9.49,0.03,0.12,0.99980,-0.01930,-0.00027,-0.00150,0.018,0.0000
2025,6,11,12:07:53.168,0.032,199,-11.9,-2.3,-2.7,-9.37,-0.19,0.40,0.99980,-0.01953,-0.00030,-0.00157,0.018,0.0000
2025,6,11,12:07:53.170,0.034,201,-11.7,-1.9,0.1,-9.47,-0.11,0.03,0.99980,-0.01973,-0.00033,-0.00153,0.018,0.0000
2025,6,11,12:07:53.172,0.036,203,-6.8,0.0,-2.1,-9.80,-0.33,-0.40,0.99980,-0.01983,-0.00033,-0.00160,0.017,0.0000
2025,6,11,12:07:53.174,0.038,205,-0.9,3.1,-4.2,-9.57,-0.55,0.07,0.99980,-0.01987,-0.00030,-0.00167,0.017,0.0000
2025,6,11,12:07:53.176,0.040,207,1.8,3.8,0.9,-9.43,-0.54,0.19,0.99980,-0.01983,-0.00023,-0.00163,0.017,0.0000
2025,6,11,12:07:53.178,0.042,209,7.9,1.8,0.5,-9.55,0.02,0.65,0.99980,-0.01970,-0.00020,-0.00163,0.017,0.0000
2025,6,11,12:07:53.180,0.044,211,10.8,1.0,-5.3,-9.67,0.20,0.90,0.99980,-0.01950,-0.00017,-0.00173,0.018,0.0000
2025,6,11,12:07:53.182,0.046,213,13.4,-2.1,-4.9,-9.55,0.43,0.68,0.99980,-0.01927,-0.00020,-0.00183,0.017,0.0000
2025,6,11,12:07:53.184,0.048,215,12.5,-1.2,0.2,-9.54,0.18,0.63,0.99980,-0.01903,-0.00023,-0.00180,0.017,0.0000
2025,6,11,12:07:53.186,0.050,217,6.8,-1.4,0.2,-9.65,0.01,0.27,0.99980,-0.01893,-0.00027,-0.00180,0.017,0.0000
2025,6,11,12:07:53.188,0.052,219,4.5,-1.7,-2.0,-9.68,0.00,-0.03,0.99980,-0.01887,-0.00030,-0.00183,0.019,0.0000
2025,6,11,12:07:53.190,0.054,221,5.1,-1.4,-1.3,-9.53,-0.27,0.00,0.99980,-0.01877,-0.00033,-0.00187,0.017,0.0000
2025,6,11,12:07:53.192,0.056,223,2.7,-0.7,0.7,-9.66,-0.06,-0.13,0.99980,-0.01870,-0.00033,-0.00187,0.017,0.0000
2025,6,11,12:07:53.194,0.058,225,1.9,0.0,-3.7,-9.62,-0.11,-0.09,0.99980,-0.01867,-0.00033,-0.00193,0.017,0.0000
2025,6,11,12:07:53.196,0.060,227,-5.8,-0.7,-3.6,-9.64,-0.18,0.31,0.99980,-0.01877,-0.00033,-0.00200,0.017,0.0000
2025,6,11,12:07:53.198,0.062,229,-14.9,0.0,2.5,-9.58,-0.10,0.25,0.99980,-0.01903,-0.00033,-0.00193,0.018,0.0000
2025,6,11,12:07:53.200,0.064,231,-16.5,-1.1,3.0,-9.61,0.01,0.10,0.99980,-0.01933,-0.00037,-0.00190,0.017,0.0000
2025,6,11,12:07:53.202,0.066,233,-14.7,-0.5,0.8,-9.66,-0.09,0.14,0.99980,-0.01960,-0.00037,-0.00187,0.017,0.0000
2025,6,11,12:07:53.204,0.068,235,-16.5,-0.3,-0.1,-9.64,-0.24,0.17,0.99980,-0.01987,-0.00037,-0.00187,0.017,0.0000
2025,6,11,12:07:53.206,0.070,237,-22.3,0.9,0.2,-9.51,-0.39,0.06,0.99977,-0.02027,-0.00037,-0.00187,0.017,0.0000
2025,6,11,12:07:53.208,0.072,239,-26.6,0.0,-2.0,-9.61,-0.42,0.30,0.99977,-0.02073,-0.00037,-0.00190,0.016,0.0000
2025,6,11,12:07:53.210,0.074,241,-28.6,0.4,-2.3,-9.59,-0.19,0.48,0.99977,-0.02123,-0.00037,-0.00193,0.017,0.0000
2025,6,11,12:07:53.212,0.076,243,-22.0,0.1,-2.0,-9.56,0.01,0.52,0.99973,-0.02160,-0.00037,-0.00200,0.017,0.0000
2025,6,11,12:07:53.214,0.078,245,-17.9,-0.2,1.4,-9.51,-0.24,0.52,0.99973,-0.02193,-0.00037,-0.00197,0.017,0.0000
2025,6,11,12:07:53.216,0.080,247,-17.0,-0.8,0.3,-9.59,-0.86,0.85,0.99973,-0.02223,-0.00037,-0.00197,0.017,0.0000
2025,6,11,12:07:53.218,0.082,249,-20.9,-1.0,-1.6,-9.55,-0.94,0.84,0.99973,-0.02260,-0.00040,-0.00197,0.017,0.0000
2025,6,11,12:07:53.220,0.084,1,-25.9,-3.3,-1.9,-9.50,-0.17,0.60,0.99970,-0.02303,-0.00043,-0.00200,0.018,0.0000
2025,6,11,12:07:53.222,0.086,3,-23.0,-3.6,-3.2,-9.57,0.30,0.59,0.99970,-0.02343,-0.00050,-0.00207,0.017,0.0000
2025,6,11,12:07:53.224,0.088,5,-12.4,-3.7,-2.6,-9.81,0.75,0.21,0.99970,-0.02367,-0.00057,-0.00210,0.017,0.0000
2025,6,11,12:07:53.226,0.090,7,-7.7,-0.6,-1.8,-9.72,0.67,-0.05,0.99970,-0.02380,-0.00060,-0.00213,0.018,0.0000
2025,6,11,12:07:53.228,0.092,9,-9.3,-0.1,1.8,-9.67,0.39,-0.05,0.99970,-0.02397,-0.00060,-0.00210,0.023,0.0000
2025,6,11,12:07:53.230,0.094,11,-20.6,-0.3,2.2,-9.68,0.06,0.13,0.99970,-0.02433,-0.00060,-0.00207,0.017,0.0000
2025,6,11,12:07:53.232,0.096,13,-24.0,-0.7,-0.9,-9.68,-0.06,0.00,0.99967,-0.02473,-0.00060,-0.00210,0.018,0.0000
2025,6,11,12:07:53.234,0.098,15,-23.1,-1.0,0.0,-9.69,-0.31,-0.06,0.99967,-0.02513,-0.00063,-0.00210,0.017,0.0000
2025,6,11,12:07:53.236,0.100,17,-21.7,0.3,0.7,-9.65,-0.52,0.06,0.99967,-0.02553,-0.00060,-0.00207,0.017,0.0000
2025,6,11,12:07:53.238,0.102,19,-28.2,2.0,-1.2,-9.66,-0.71,-0.07,0.99963,-0.02603,-0.00057,-0.00210,0.018,0.0000
2025,6,11,12:07:53.240,0.104,21,-41.0,2.2,-0.6,-9.67,-0.33,0.14,0.99963,-0.02673,-0.00053,-0.00210,0.017,0.0000
2025,6,11,12:07:53.242,0.106,23,-46.1,2.1,2.1,-9.61,-0.10,0.13,0.99960,-0.02753,-0.00050,-0.00207,0.017,0.0000
2025,6,11,12:07:53.244,0.108,25,-47.1,2.4,2.4,-9.71,0.13,0.28,0.99957,-0.02837,-0.00043,-0.00203,0.017,0.0000
2025,6,11,12:07:53.246,0.110,27,-46.0,2.4,0.0,-9.68,0.01,0.31,0.99957,-0.02917,-0.00040,-0.00203,0.017,0.0000
2025,6,11,12:07:53.248,0.112,29,-44.9,3.4,-0.2,-9.59,-0.29,0.42,0.99953,-0.02997,-0.00033,-0.00203,0.017,0.0000
2025,6,11,12:07:53.250,0.114,31,-45.4,2.7,-0.4,-9.59,-0.10,0.46,0.99950,-0.03073,-0.00030,-0.00207,0.018,0.0000
2025,6,11,12:07:53.252,0.116,33,-44.4,2.2,0.0,-9.61,0.00,0.46,0.99950,-0.03153,-0.00027,-0.00207,0.016,0.0000
2025,6,11,12:07:53.254,0.118,35,-39.2,2.6,-0.9,-9.60,0.29,0.27,0.99947,-0.03220,-0.00020,-0.00207,0.018,0.0000
2025,6,11,12:07:53.256,0.120,37,-36.0,2.4,0.2,-9.37,0.65,-0.12,0.99943,-0.03283,-0.00017,-0.00207,0.017,0.0000
2025,6,11,12:07:53.258,0.122,39,-30.1,0.1,0.0,-9.71,0.43,0.09,0.99943,-0.03337,-0.00017,-0.00207,0.017,0.0000
2025,6,11,12:07:53.260,0.124,41,-32.3,2.4,0.2,-9.92,0.35,0.35,0.99940,-0.03393,-0.00010,-0.00207,0.017,0.0000
2025,6,11,12:07:53.262,0.126,43,-32.7,5.6,2.4,-9.37,0.44,-0.71,0.99940,-0.03450,0.00000,-0.00203,0.017,0.0000
2025,6,11,12:07:53.264,0.128,45,-29.9,4.1,-1.4,-9.76,-0.86,0.94,0.99937,-0.03503,0.00003,-0.00207,0.018,0.0000
2025,6,11,12:07:53.266,0.130,47,-31.7,5.1,0.0,-9.69,-0.91,0.83,0.99933,-0.03557,0.00013,-0.00207,0.018,0.0000
2025,6,11,12:07:53.268,0.132,49,-37.3,1.7,0.5,-9.26,-0.56,0.28,0.99933,-0.03623,0.00013,-0.00207,0.018,0.0000
2025,6,11,12:07:53.270,0.134,51,-40.3,-0.3,-0.7,-9.57,-0.64,0.82,0.99930,-0.03693,0.00013,-0.00207,0.018,0.0000
2025,6,11,12:07:53.272,0.136,53,-47.4,1.5,-0.3,-9.77,-0.14,0.64,0.99927,-0.03777,0.00017,-0.00207,0.016,0.0000
2025,6,11,12:07:53.274,0.138,55,-46.0,1.0,-0.2,-9.70,0.27,0.09,0.99923,-0.03857,0.00020,-0.00207,0.023,0.0000
2025,6,11,12:07:53.276,0.140,57,-35.8,-0.7,-0.4,-9.57,0.40,0.20,0.99920,-0.03920,0.00017,-0.00210,0.017,0.0000
2025,6,11,12:07:53.278,0.142,59,-27.8,1.7,1.3,-9.68,0.28,-0.07,0.99920,-0.03967,0.00020,-0.00207,0.017,0.0000
2025,6,11,12:07:53.280,0.144,61,-27.1,2.9,1.3,-9.75,0.13,-0.08,0.99917,-0.04013,0.00027,-0.00203,0.017,0.0000
2025,6,11,12:07:53.282,0.146,63,-34.3,4.9,-0.2,-9.54,-0.63,0.55,0.99917,-0.04073,0.00037,-0.00203,0.017,0.0000
2025,6,11,12:07:53.284,0.148,65,-37.6,3.1,-1.2,-9.45,-0.75,0.68,0.99913,-0.04140,0.00040,-0.00207,0.017,0.0000
2025,6,11,12:07:53.286,0.150,67,-41.8,0.1,-0.6,-9.59,0.11,0.19,0.99910,-0.04213,0.00040,-0.00207,0.017,0.0000
2025,6,11,12:07:53.288,0.152,69,-43.8,-0.5,-0.2,-9.65,0.14,0.18,0.99907,-0.04290,0.00040,-0.00210,0.017,0.0000
2025,6,11,12:07:53.290,0.154,71,-46.2,2.3,0.5,-9.64,0.55,0.54,0.99903,-0.04370,0.00043,-0.00207,0.018,0.0000
2025,6,11,12:07:53.292,0.156,73,-47.5,0.8,1.0,-9.59,-0.08,-0.25,0.99900,-0.04453,0.00047,-0.00207,0.017,0.0000
2025,6,11,12:07:53.294,0.158,75,-47.6,-0.5,1.7,-9.64,0.19,-0.17,0.99897,-0.04537,0.00047,-0.00203,0.016,0.0000
2025,6,11,12:07:53.296,0.160,77,-46.0,0.6,3.7,-9.63,1.22,-0.67,0.99890,-0.04617,0.00047,-0.00197,0.018,0.0000
2025,6,11,12:07:53.298,0.162,79,-46.2,4.8,1.7,-9.80,0.78,-0.63,0.99887,-0.04697,0.00057,-0.00193,0.017,0.0000
2025,6,11,12:07:53.300,0.164,81,-46.8,10.6,1.3,-9.84,-1.32,0.81,0.99883,-0.04780,0.00073,-0.00193,0.017,0.0000
2025,6,11,12:07:53.302,0.166,83,-55.6,5.9,0.7,-9.27,-1.42,1.15,0.99880,-0.04877,0.00087,-0.00190,0.017,0.0000
2025,6,11,12:07:53.304,0.168,85,-57.0,0.7,-0.9,-9.31,-0.70,0.87,0.99873,-0.04977,0.00087,-0.00193,0.017,0.0000
2025,6,11,12:07:53.306,0.170,87,-54.3,-1.0,-2.2,-9.96,-0.29,0.76,0.99870,-0.05070,0.00083,-0.00197,0.018,0.0000
2025,6,11,12:07:53.308,0.172,89,-51.1,0.6,-1.3,-9.65,-0.10,0.84,0.99863,-0.05160,0.00087,-0.00200,0.017,0.0000
2025,6,11,12:07:53.310,0.174,91,-43.9,3.2,-0.3,-9.69,0.04,0.04,0.99860,-0.05237,0.00093,-0.00200,0.017,0.0000
2025,6,11,12:07:53.312,0.176,93,-41.9,2.8,-0.8,-9.65,0.20,-0.46,0.99857,-0.05310,0.00097,-0.00200,0.017,0.0000
2025,6,11,12:07:53.314,0.178,95,-39.0,0.6,0.6,-9.72,0.20,0.10,0.99853,-0.05377,0.00097,-0.00200,0.018,0.0000
2025,6,11,12:07:53.316,0.180,97,-40.8,6.2,0.0,-9.78,0.87,-0.17,0.99850,-0.05447,0.00110,-0.00200,0.017,0.0000
2025,6,11,12:07:53.318,0.182,99,-40.0,7.8,-1.6,-9.66,0.27,-0.55,0.99847,-0.05517,0.00123,-0.00203,0.016,0.0000
2025,6,11,12:07:53.320,0.184,101,-44.0,7.2,-0.2,-9.71,-0.35,0.58,0.99840,-0.05593,0.00137,-0.00207,0.017,0.0000
2025,6,11,12:07:53.322,0.186,103,-45.5,6.9,1.9,-9.65,-0.22,0.98,0.99837,-0.05673,0.00147,-0.00203,0.017,0.0000
2025,6,11,12:07:53.324,0.188,105,-46.0,4.8,1.0,-9.77,0.83,-0.54,0.99833,-0.05753,0.00157,-0.00200,0.016,0.0000
2025,6,11,12:07:53.326,0.190,107,-41.7,4.8,-1.2,-10.02,0.77,0.20,0.99827,-0.05827,0.00167,-0.00203,0.017,0.0000
2025,6,11,12:07:53.328,0.192,109,-38.2,8.9,2.6,-9.76,0.34,0.48,0.99823,-0.05893,0.00180,-0.00200,0.016,0.0000
2025,6,11,12:07:53.330,0.194,111,-32.6,8.2,3.1,-9.71,0.66,-0.51,0.99820,-0.05950,0.00197,-0.00197,0.017,0.0000
2025,6,11,12:07:53.332,0.196,113,-31.5,6.2,2.3,-9.91,0.07,-0.18,0.99817,-0.06007,0.00207,-0.00190,0.017,0.0000
2025,6,11,12:07:53.334,0.198,115,-39.7,10.9,3.0,-9.64,-0.18,0.39,0.99813,-0.06073,0.00227,-0.00187,0.017,0.0000
